#
# Results on Thu, 23 Apr 2026 13:04:26 GMT
# USER AGENT: Mozilla/5.0 (Macintosh; Intel Mac OS X 10.15; rv:149.0) Gecko/20100101 Firefox/149.0
# Design number was non-random = 0
#
# Columns below this comment are as follows:
# 1. Results reception time.
# 2. MD5 hash of participant's IP address.
# 3. Controller name.
# 4. Order number of item.
# 5. Inner element number.
# 6. Label.
# 7. Latin Square Group.
# 8. PennElementType.
# 9. PennElementName.
# 10. Parameter.
# 11. Value.
# 12. EventTime.
# 13. Comments.
1776949466,d4cee26f49ed4e79de6f255c85c1eae8,PennController,0,0,welcome,NULL,PennController,0,_Trial_,Start,1776949228907,NULL
1776949466,d4cee26f49ed4e79de6f255c85c1eae8,PennController,0,0,welcome,NULL,PennController,0,_Header_,Start,1776949228907,NULL
1776949466,d4cee26f49ed4e79de6f255c85c1eae8,PennController,0,0,welcome,NULL,PennController,0,_Header_,End,1776949229161,NULL
1776949466,d4cee26f49ed4e79de6f255c85c1eae8,PennController,0,0,welcome,NULL,PennController,0,_Trial_,End,1776949231361,NULL
1776949466,d4cee26f49ed4e79de6f255c85c1eae8,PennController,83,0,consent,NULL,PennController,2,_Trial_,Start,1776949231365,NULL
1776949466,d4cee26f49ed4e79de6f255c85c1eae8,PennController,83,0,consent,NULL,PennController,2,_Header_,Start,1776949231365,NULL
1776949466,d4cee26f49ed4e79de6f255c85c1eae8,PennController,83,0,consent,NULL,PennController,2,_Header_,End,1776949231621,NULL
1776949466,d4cee26f49ed4e79de6f255c85c1eae8,PennController,83,0,consent,NULL,PennController,2,_Trial_,End,1776949246499,NULL
1776949466,d4cee26f49ed4e79de6f255c85c1eae8,PennController,88,0,instructions1,NULL,PennController,7,_Trial_,Start,1776949246504,NULL
1776949466,d4cee26f49ed4e79de6f255c85c1eae8,PennController,88,0,instructions1,NULL,PennController,7,_Header_,Start,1776949246504,NULL
1776949466,d4cee26f49ed4e79de6f255c85c1eae8,PennController,88,0,instructions1,NULL,PennController,7,_Header_,End,1776949246757,NULL
1776949466,d4cee26f49ed4e79de6f255c85c1eae8,PennController,88,0,instructions1,NULL,PennController,7,_Trial_,End,1776949248354,NULL
1776949466,d4cee26f49ed4e79de6f255c85c1eae8,PennController,89,0,instructions2,NULL,PennController,8,_Trial_,Start,1776949248355,NULL
1776949466,d4cee26f49ed4e79de6f255c85c1eae8,PennController,89,0,instructions2,NULL,PennController,8,_Header_,Start,1776949248355,NULL
1776949466,d4cee26f49ed4e79de6f255c85c1eae8,PennController,89,0,instructions2,NULL,PennController,8,_Header_,End,1776949248608,NULL
1776949466,d4cee26f49ed4e79de6f255c85c1eae8,PennController,89,0,instructions2,NULL,PennController,8,_Trial_,End,1776949249767,NULL
1776949466,d4cee26f49ed4e79de6f255c85c1eae8,PennController,85,0,practice1,NULL,PennController,4,_Trial_,Start,1776949249769,NULL
1776949466,d4cee26f49ed4e79de6f255c85c1eae8,PennController,85,0,practice1,NULL,PennController,4,_Header_,Start,1776949249769,NULL
1776949466,d4cee26f49ed4e79de6f255c85c1eae8,PennController,85,0,practice1,NULL,PennController,4,_Header_,End,1776949250023,NULL
1776949466,d4cee26f49ed4e79de6f255c85c1eae8,PennController,85,0,practice1,NULL,Scale,slider,Choice,65,1776949252355,89
1776949466,d4cee26f49ed4e79de6f255c85c1eae8,PennController,85,0,practice1,NULL,PennController,4,_Trial_,End,1776949253057,NULL
1776949466,d4cee26f49ed4e79de6f255c85c1eae8,PennController,86,0,practice2,NULL,PennController,5,_Trial_,Start,1776949253058,NULL
1776949466,d4cee26f49ed4e79de6f255c85c1eae8,PennController,86,0,practice2,NULL,PennController,5,_Header_,Start,1776949253058,NULL
1776949466,d4cee26f49ed4e79de6f255c85c1eae8,PennController,86,0,practice2,NULL,PennController,5,_Header_,End,1776949253311,NULL
1776949466,d4cee26f49ed4e79de6f255c85c1eae8,PennController,86,0,practice2,NULL,Scale,slider,Choice,37,1776949253683,92
1776949466,d4cee26f49ed4e79de6f255c85c1eae8,PennController,86,0,practice2,NULL,PennController,5,_Trial_,End,1776949254301,NULL
# 13. Number.
# 14. Name.
# 15. Target.
# 16. Group.
# 17. LexicalType.
# 18. TrialType.
# 19. Valence.
# 20. ContextCondition.
# 21. Comments.
1776949466,d4cee26f49ed4e79de6f255c85c1eae8,PennController,77,0,test,NULL,PennController,89,_Trial_,Start,1776949254303,19,ENF19,Filippo is generous.,A,adj,filler,pos,AO,NULL
1776949466,d4cee26f49ed4e79de6f255c85c1eae8,PennController,77,0,test,NULL,PennController,89,_Header_,Start,1776949254303,19,ENF19,Filippo is generous.,A,adj,filler,pos,AO,NULL
1776949466,d4cee26f49ed4e79de6f255c85c1eae8,PennController,77,0,test,NULL,PennController,89,_Header_,End,1776949254553,19,ENF19,Filippo is generous.,A,adj,filler,pos,AO,NULL
1776949466,d4cee26f49ed4e79de6f255c85c1eae8,PennController,77,0,test,NULL,Scale,slider,Choice,37,1776949255527,19,ENF19,Filippo is generous.,A,adj,filler,pos,AO,101
1776949466,d4cee26f49ed4e79de6f255c85c1eae8,PennController,77,0,test,NULL,PennController,89,_Trial_,End,1776949256186,19,ENF19,Filippo is generous.,A,adj,filler,pos,AO,NULL
1776949466,d4cee26f49ed4e79de6f255c85c1eae8,PennController,36,0,test,NULL,PennController,48,_Trial_,Start,1776949256190,5,EAN5,Beatrice is lazy.,A,adj,test,neg,NEU,NULL
1776949466,d4cee26f49ed4e79de6f255c85c1eae8,PennController,36,0,test,NULL,PennController,48,_Header_,Start,1776949256190,5,EAN5,Beatrice is lazy.,A,adj,test,neg,NEU,NULL
1776949466,d4cee26f49ed4e79de6f255c85c1eae8,PennController,36,0,test,NULL,PennController,48,_Header_,End,1776949256442,5,EAN5,Beatrice is lazy.,A,adj,test,neg,NEU,NULL
1776949466,d4cee26f49ed4e79de6f255c85c1eae8,PennController,36,0,test,NULL,Scale,slider,Choice,29,1776949256826,5,EAN5,Beatrice is lazy.,A,adj,test,neg,NEU,51
1776949466,d4cee26f49ed4e79de6f255c85c1eae8,PennController,36,0,test,NULL,PennController,48,_Trial_,End,1776949257673,5,EAN5,Beatrice is lazy.,A,adj,test,neg,NEU,NULL
1776949466,d4cee26f49ed4e79de6f255c85c1eae8,PennController,38,0,test,NULL,PennController,50,_Trial_,Start,1776949257674,7,EAN7,Teresa is indiscreet.,A,adj,test,neg,AO,NULL
1776949466,d4cee26f49ed4e79de6f255c85c1eae8,PennController,38,0,test,NULL,PennController,50,_Header_,Start,1776949257674,7,EAN7,Teresa is indiscreet.,A,adj,test,neg,AO,NULL
1776949466,d4cee26f49ed4e79de6f255c85c1eae8,PennController,38,0,test,NULL,PennController,50,_Header_,End,1776949257927,7,EAN7,Teresa is indiscreet.,A,adj,test,neg,AO,NULL
1776949466,d4cee26f49ed4e79de6f255c85c1eae8,PennController,38,0,test,NULL,Scale,slider,Choice,30,1776949258360,7,EAN7,Teresa is indiscreet.,A,adj,test,neg,AO,84
1776949466,d4cee26f49ed4e79de6f255c85c1eae8,PennController,38,0,test,NULL,PennController,50,_Trial_,End,1776949259003,7,EAN7,Teresa is indiscreet.,A,adj,test,neg,AO,NULL
1776949466,d4cee26f49ed4e79de6f255c85c1eae8,PennController,69,0,test,NULL,PennController,81,_Trial_,Start,1776949259004,11,ENF11,Samuele is aggressive.,A,adj,filler,neg,AO,NULL
1776949466,d4cee26f49ed4e79de6f255c85c1eae8,PennController,69,0,test,NULL,PennController,81,_Header_,Start,1776949259004,11,ENF11,Samuele is aggressive.,A,adj,filler,neg,AO,NULL
1776949466,d4cee26f49ed4e79de6f255c85c1eae8,PennController,69,0,test,NULL,PennController,81,_Header_,End,1776949259258,11,ENF11,Samuele is aggressive.,A,adj,filler,neg,AO,NULL
1776949466,d4cee26f49ed4e79de6f255c85c1eae8,PennController,69,0,test,NULL,Scale,slider,Choice,34,1776949259913,11,ENF11,Samuele is aggressive.,A,adj,filler,neg,AO,75
1776949466,d4cee26f49ed4e79de6f255c85c1eae8,PennController,69,0,test,NULL,PennController,81,_Trial_,End,1776949260427,11,ENF11,Samuele is aggressive.,A,adj,filler,neg,AO,NULL
1776949466,d4cee26f49ed4e79de6f255c85c1eae8,PennController,75,0,test,NULL,PennController,87,_Trial_,Start,1776949260430,17,ENF17,Beatrice is wise.,A,adj,filler,pos,TO,NULL
1776949466,d4cee26f49ed4e79de6f255c85c1eae8,PennController,75,0,test,NULL,PennController,87,_Header_,Start,1776949260430,17,ENF17,Beatrice is wise.,A,adj,filler,pos,TO,NULL
1776949466,d4cee26f49ed4e79de6f255c85c1eae8,PennController,75,0,test,NULL,PennController,87,_Header_,End,1776949260683,17,ENF17,Beatrice is wise.,A,adj,filler,pos,TO,NULL
1776949466,d4cee26f49ed4e79de6f255c85c1eae8,PennController,75,0,test,NULL,Scale,slider,Choice,27,1776949261236,17,ENF17,Beatrice is wise.,A,adj,filler,pos,TO,112
1776949466,d4cee26f49ed4e79de6f255c85c1eae8,PennController,75,0,test,NULL,PennController,87,_Trial_,End,1776949261903,17,ENF17,Beatrice is wise.,A,adj,filler,pos,TO,NULL
1776949466,d4cee26f49ed4e79de6f255c85c1eae8,PennController,37,0,test,NULL,PennController,49,_Trial_,Start,1776949261906,6,EAN6,Roberta is mean.,A,adj,test,neg,TO,NULL
1776949466,d4cee26f49ed4e79de6f255c85c1eae8,PennController,37,0,test,NULL,PennController,49,_Header_,Start,1776949261906,6,EAN6,Roberta is mean.,A,adj,test,neg,TO,NULL
1776949466,d4cee26f49ed4e79de6f255c85c1eae8,PennController,37,0,test,NULL,PennController,49,_Header_,End,1776949262157,6,EAN6,Roberta is mean.,A,adj,test,neg,TO,NULL
1776949466,d4cee26f49ed4e79de6f255c85c1eae8,PennController,37,0,test,NULL,Scale,slider,Choice,26,1776949262779,6,EAN6,Roberta is mean.,A,adj,test,neg,TO,102
1776949466,d4cee26f49ed4e79de6f255c85c1eae8,PennController,37,0,test,NULL,PennController,49,_Trial_,End,1776949263240,6,EAN6,Roberta is mean.,A,adj,test,neg,TO,NULL
1776949466,d4cee26f49ed4e79de6f255c85c1eae8,PennController,26,0,test,NULL,PennController,38,_Trial_,Start,1776949263242,4,EPN4,Valentina is an asshole.,A,pej,test,neg,AO,NULL
1776949466,d4cee26f49ed4e79de6f255c85c1eae8,PennController,26,0,test,NULL,PennController,38,_Header_,Start,1776949263242,4,EPN4,Valentina is an asshole.,A,pej,test,neg,AO,NULL
1776949466,d4cee26f49ed4e79de6f255c85c1eae8,PennController,26,0,test,NULL,PennController,38,_Header_,End,1776949263496,4,EPN4,Valentina is an asshole.,A,pej,test,neg,AO,NULL
1776949466,d4cee26f49ed4e79de6f255c85c1eae8,PennController,26,0,test,NULL,Scale,slider,Choice,23,1776949264031,4,EPN4,Valentina is an asshole.,A,pej,test,neg,AO,100
1776949466,d4cee26f49ed4e79de6f255c85c1eae8,PennController,26,0,test,NULL,PennController,38,_Trial_,End,1776949264469,4,EPN4,Valentina is an asshole.,A,pej,test,neg,AO,NULL
1776949466,d4cee26f49ed4e79de6f255c85c1eae8,PennController,59,0,test,NULL,PennController,71,_Trial_,Start,1776949264471,1,ENF1,Luca is selfish.,A,adj,filler,neg,TO,NULL
1776949466,d4cee26f49ed4e79de6f255c85c1eae8,PennController,59,0,test,NULL,PennController,71,_Header_,Start,1776949264471,1,ENF1,Luca is selfish.,A,adj,filler,neg,TO,NULL
1776949466,d4cee26f49ed4e79de6f255c85c1eae8,PennController,59,0,test,NULL,PennController,71,_Header_,End,1776949264723,1,ENF1,Luca is selfish.,A,adj,filler,neg,TO,NULL
1776949466,d4cee26f49ed4e79de6f255c85c1eae8,PennController,59,0,test,NULL,Scale,slider,Choice,31,1776949265371,1,ENF1,Luca is selfish.,A,adj,filler,neg,TO,128
1776949466,d4cee26f49ed4e79de6f255c85c1eae8,PennController,59,0,test,NULL,PennController,71,_Trial_,End,1776949266017,1,ENF1,Luca is selfish.,A,adj,filler,neg,TO,NULL
1776949466,d4cee26f49ed4e79de6f255c85c1eae8,PennController,43,0,test,NULL,PennController,55,_Trial_,Start,1776949266017,3,EPP3,Alberto is a sweetheart.,A,pej,test,pos,TO,NULL
1776949466,d4cee26f49ed4e79de6f255c85c1eae8,PennController,43,0,test,NULL,PennController,55,_Header_,Start,1776949266017,3,EPP3,Alberto is a sweetheart.,A,pej,test,pos,TO,NULL
1776949466,d4cee26f49ed4e79de6f255c85c1eae8,PennController,43,0,test,NULL,PennController,55,_Header_,End,1776949266270,3,EPP3,Alberto is a sweetheart.,A,pej,test,pos,TO,NULL
1776949466,d4cee26f49ed4e79de6f255c85c1eae8,PennController,43,0,test,NULL,Scale,slider,Choice,25,1776949266776,3,EPP3,Alberto is a sweetheart.,A,pej,test,pos,TO,84
1776949466,d4cee26f49ed4e79de6f255c85c1eae8,PennController,43,0,test,NULL,PennController,55,_Trial_,End,1776949267316,3,EPP3,Alberto is a sweetheart.,A,pej,test,pos,TO,NULL
1776949466,d4cee26f49ed4e79de6f255c85c1eae8,PennController,71,0,test,NULL,PennController,83,_Trial_,Start,1776949267318,13,ENF13,Lorenzo is patient.,A,adj,filler,pos,TO,NULL
1776949466,d4cee26f49ed4e79de6f255c85c1eae8,PennController,71,0,test,NULL,PennController,83,_Header_,Start,1776949267318,13,ENF13,Lorenzo is patient.,A,adj,filler,pos,TO,NULL
1776949466,d4cee26f49ed4e79de6f255c85c1eae8,PennController,71,0,test,NULL,PennController,83,_Header_,End,1776949267571,13,ENF13,Lorenzo is patient.,A,adj,filler,pos,TO,NULL
1776949466,d4cee26f49ed4e79de6f255c85c1eae8,PennController,71,0,test,NULL,Scale,slider,Choice,22,1776949268043,13,ENF13,Lorenzo is patient.,A,adj,filler,pos,TO,65
1776949466,d4cee26f49ed4e79de6f255c85c1eae8,PennController,71,0,test,NULL,PennController,83,_Trial_,End,1776949268552,13,ENF13,Lorenzo is patient.,A,adj,filler,pos,TO,NULL
1776949466,d4cee26f49ed4e79de6f255c85c1eae8,PennController,68,0,test,NULL,PennController,80,_Trial_,Start,1776949268554,10,ENF10,Beatrice is rude.,A,adj,filler,neg,AO,NULL
1776949466,d4cee26f49ed4e79de6f255c85c1eae8,PennController,68,0,test,NULL,PennController,80,_Header_,Start,1776949268554,10,ENF10,Beatrice is rude.,A,adj,filler,neg,AO,NULL
1776949466,d4cee26f49ed4e79de6f255c85c1eae8,PennController,68,0,test,NULL,PennController,80,_Header_,End,1776949268806,10,ENF10,Beatrice is rude.,A,adj,filler,neg,AO,NULL
1776949466,d4cee26f49ed4e79de6f255c85c1eae8,PennController,68,0,test,NULL,Scale,slider,Choice,22,1776949269199,10,ENF10,Beatrice is rude.,A,adj,filler,neg,AO,103
1776949466,d4cee26f49ed4e79de6f255c85c1eae8,PennController,68,0,test,NULL,PennController,80,_Trial_,End,1776949269827,10,ENF10,Beatrice is rude.,A,adj,filler,neg,AO,NULL
1776949466,d4cee26f49ed4e79de6f255c85c1eae8,PennController,23,0,test,NULL,PennController,35,_Trial_,Start,1776949269828,1,EPN1,Marco is an asshole.,A,pej,test,neg,AO,NULL
1776949466,d4cee26f49ed4e79de6f255c85c1eae8,PennController,23,0,test,NULL,PennController,35,_Header_,Start,1776949269828,1,EPN1,Marco is an asshole.,A,pej,test,neg,AO,NULL
1776949466,d4cee26f49ed4e79de6f255c85c1eae8,PennController,23,0,test,NULL,PennController,35,_Header_,End,1776949270079,1,EPN1,Marco is an asshole.,A,pej,test,neg,AO,NULL
1776949466,d4cee26f49ed4e79de6f255c85c1eae8,PennController,23,0,test,NULL,Scale,slider,Choice,22,1776949271007,1,EPN1,Marco is an asshole.,A,pej,test,neg,AO,130
1776949466,d4cee26f49ed4e79de6f255c85c1eae8,PennController,23,0,test,NULL,PennController,35,_Trial_,End,1776949271533,1,EPN1,Marco is an asshole.,A,pej,test,neg,AO,NULL
1776949466,d4cee26f49ed4e79de6f255c85c1eae8,PennController,32,0,test,NULL,PennController,44,_Trial_,Start,1776949271534,1,EAN1,Sofia is a liar.,A,adj,test,neg,AO,NULL
1776949466,d4cee26f49ed4e79de6f255c85c1eae8,PennController,32,0,test,NULL,PennController,44,_Header_,Start,1776949271534,1,EAN1,Sofia is a liar.,A,adj,test,neg,AO,NULL
1776949466,d4cee26f49ed4e79de6f255c85c1eae8,PennController,32,0,test,NULL,PennController,44,_Header_,End,1776949271787,1,EAN1,Sofia is a liar.,A,adj,test,neg,AO,NULL
1776949466,d4cee26f49ed4e79de6f255c85c1eae8,PennController,32,0,test,NULL,Scale,slider,Choice,20,1776949272321,1,EAN1,Sofia is a liar.,A,adj,test,neg,AO,109
1776949466,d4cee26f49ed4e79de6f255c85c1eae8,PennController,32,0,test,NULL,PennController,44,_Trial_,End,1776949272931,1,EAN1,Sofia is a liar.,A,adj,test,neg,AO,NULL
1776949466,d4cee26f49ed4e79de6f255c85c1eae8,PennController,39,0,test,NULL,PennController,51,_Trial_,Start,1776949272932,8,EAN8,Salvatore is cruel.,A,adj,test,neg,NEU,NULL
1776949466,d4cee26f49ed4e79de6f255c85c1eae8,PennController,39,0,test,NULL,PennController,51,_Header_,Start,1776949272932,8,EAN8,Salvatore is cruel.,A,adj,test,neg,NEU,NULL
1776949466,d4cee26f49ed4e79de6f255c85c1eae8,PennController,39,0,test,NULL,PennController,51,_Header_,End,1776949273185,8,EAN8,Salvatore is cruel.,A,adj,test,neg,NEU,NULL
1776949466,d4cee26f49ed4e79de6f255c85c1eae8,PennController,39,0,test,NULL,Scale,slider,Choice,24,1776949273556,8,EAN8,Salvatore is cruel.,A,adj,test,neg,NEU,120
1776949466,d4cee26f49ed4e79de6f255c85c1eae8,PennController,39,0,test,NULL,PennController,51,_Trial_,End,1776949274165,8,EAN8,Salvatore is cruel.,A,adj,test,neg,NEU,NULL
1776949466,d4cee26f49ed4e79de6f255c85c1eae8,PennController,53,0,test,NULL,PennController,65,_Trial_,Start,1776949274166,3,EAP4,Francesca is careful.,A,adj,test,pos,AO,NULL
1776949466,d4cee26f49ed4e79de6f255c85c1eae8,PennController,53,0,test,NULL,PennController,65,_Header_,Start,1776949274166,3,EAP4,Francesca is careful.,A,adj,test,pos,AO,NULL
1776949466,d4cee26f49ed4e79de6f255c85c1eae8,PennController,53,0,test,NULL,PennController,65,_Header_,End,1776949274420,3,EAP4,Francesca is careful.,A,adj,test,pos,AO,NULL
1776949466,d4cee26f49ed4e79de6f255c85c1eae8,PennController,53,0,test,NULL,Scale,slider,Choice,29,1776949274830,3,EAP4,Francesca is careful.,A,adj,test,pos,AO,127
1776949466,d4cee26f49ed4e79de6f255c85c1eae8,PennController,53,0,test,NULL,PennController,65,_Trial_,End,1776949275339,3,EAP4,Francesca is careful.,A,adj,test,pos,AO,NULL
1776949466,d4cee26f49ed4e79de6f255c85c1eae8,PennController,66,0,test,NULL,PennController,78,_Trial_,Start,1776949275341,8,ENF8,Sara is manipulative.,A,adj,filler,neg,AO,NULL
1776949466,d4cee26f49ed4e79de6f255c85c1eae8,PennController,66,0,test,NULL,PennController,78,_Header_,Start,1776949275341,8,ENF8,Sara is manipulative.,A,adj,filler,neg,AO,NULL
1776949466,d4cee26f49ed4e79de6f255c85c1eae8,PennController,66,0,test,NULL,PennController,78,_Header_,End,1776949275592,8,ENF8,Sara is manipulative.,A,adj,filler,neg,AO,NULL
1776949466,d4cee26f49ed4e79de6f255c85c1eae8,PennController,66,0,test,NULL,Scale,slider,Choice,24,1776949275974,8,ENF8,Sara is manipulative.,A,adj,filler,neg,AO,93
1776949466,d4cee26f49ed4e79de6f255c85c1eae8,PennController,66,0,test,NULL,PennController,78,_Trial_,End,1776949276865,8,ENF8,Sara is manipulative.,A,adj,filler,neg,AO,NULL
1776949466,d4cee26f49ed4e79de6f255c85c1eae8,PennController,56,0,test,NULL,PennController,68,_Trial_,Start,1776949276867,7,EAP7,Lorenzo is patient.,A,adj,test,pos,AO,NULL
1776949466,d4cee26f49ed4e79de6f255c85c1eae8,PennController,56,0,test,NULL,PennController,68,_Header_,Start,1776949276867,7,EAP7,Lorenzo is patient.,A,adj,test,pos,AO,NULL
1776949466,d4cee26f49ed4e79de6f255c85c1eae8,PennController,56,0,test,NULL,PennController,68,_Header_,End,1776949277119,7,EAP7,Lorenzo is patient.,A,adj,test,pos,AO,NULL
1776949466,d4cee26f49ed4e79de6f255c85c1eae8,PennController,56,0,test,NULL,Scale,slider,Choice,31,1776949277518,7,EAP7,Lorenzo is patient.,A,adj,test,pos,AO,89
1776949466,d4cee26f49ed4e79de6f255c85c1eae8,PennController,56,0,test,NULL,PennController,68,_Trial_,End,1776949278018,7,EAP7,Lorenzo is patient.,A,adj,test,pos,AO,NULL
1776949466,d4cee26f49ed4e79de6f255c85c1eae8,PennController,45,0,test,NULL,PennController,57,_Trial_,Start,1776949278019,5,EPP5,Beatrice is a sweetheart.,A,pej,test,pos,NEU,NULL
1776949466,d4cee26f49ed4e79de6f255c85c1eae8,PennController,45,0,test,NULL,PennController,57,_Header_,Start,1776949278019,5,EPP5,Beatrice is a sweetheart.,A,pej,test,pos,NEU,NULL
1776949466,d4cee26f49ed4e79de6f255c85c1eae8,PennController,45,0,test,NULL,PennController,57,_Header_,End,1776949278271,5,EPP5,Beatrice is a sweetheart.,A,pej,test,pos,NEU,NULL
1776949466,d4cee26f49ed4e79de6f255c85c1eae8,PennController,45,0,test,NULL,Scale,slider,Choice,26,1776949279173,5,EPP5,Beatrice is a sweetheart.,A,pej,test,pos,NEU,98
1776949466,d4cee26f49ed4e79de6f255c85c1eae8,PennController,45,0,test,NULL,PennController,57,_Trial_,End,1776949279667,5,EPP5,Beatrice is a sweetheart.,A,pej,test,pos,NEU,NULL
1776949466,d4cee26f49ed4e79de6f255c85c1eae8,PennController,62,0,test,NULL,PennController,74,_Trial_,Start,1776949279668,4,ENF4,Giulia is arrogant.,A,adj,filler,neg,TO,NULL
1776949466,d4cee26f49ed4e79de6f255c85c1eae8,PennController,62,0,test,NULL,PennController,74,_Header_,Start,1776949279668,4,ENF4,Giulia is arrogant.,A,adj,filler,neg,TO,NULL
1776949466,d4cee26f49ed4e79de6f255c85c1eae8,PennController,62,0,test,NULL,PennController,74,_Header_,End,1776949279919,4,ENF4,Giulia is arrogant.,A,adj,filler,neg,TO,NULL
1776949466,d4cee26f49ed4e79de6f255c85c1eae8,PennController,62,0,test,NULL,Scale,slider,Choice,28,1776949280727,4,ENF4,Giulia is arrogant.,A,adj,filler,neg,TO,89
1776949466,d4cee26f49ed4e79de6f255c85c1eae8,PennController,62,0,test,NULL,PennController,74,_Trial_,End,1776949281322,4,ENF4,Giulia is arrogant.,A,adj,filler,neg,TO,NULL
1776949466,d4cee26f49ed4e79de6f255c85c1eae8,PennController,46,0,test,NULL,PennController,58,_Trial_,Start,1776949281324,6,EPP6,Franco is a sweetheart.,A,pej,test,pos,TO,NULL
1776949466,d4cee26f49ed4e79de6f255c85c1eae8,PennController,46,0,test,NULL,PennController,58,_Header_,Start,1776949281324,6,EPP6,Franco is a sweetheart.,A,pej,test,pos,TO,NULL
1776949466,d4cee26f49ed4e79de6f255c85c1eae8,PennController,46,0,test,NULL,PennController,58,_Header_,End,1776949281576,6,EPP6,Franco is a sweetheart.,A,pej,test,pos,TO,NULL
1776949466,d4cee26f49ed4e79de6f255c85c1eae8,PennController,46,0,test,NULL,Scale,slider,Choice,27,1776949282088,6,EPP6,Franco is a sweetheart.,A,pej,test,pos,TO,83
1776949466,d4cee26f49ed4e79de6f255c85c1eae8,PennController,46,0,test,NULL,PennController,58,_Trial_,End,1776949282602,6,EPP6,Franco is a sweetheart.,A,pej,test,pos,TO,NULL
1776949466,d4cee26f49ed4e79de6f255c85c1eae8,PennController,27,0,test,NULL,PennController,39,_Trial_,Start,1776949282603,5,EPN5,Samuele is an asshole.,A,pej,test,neg,NEU,NULL
1776949466,d4cee26f49ed4e79de6f255c85c1eae8,PennController,27,0,test,NULL,PennController,39,_Header_,Start,1776949282603,5,EPN5,Samuele is an asshole.,A,pej,test,neg,NEU,NULL
1776949466,d4cee26f49ed4e79de6f255c85c1eae8,PennController,27,0,test,NULL,PennController,39,_Header_,End,1776949282856,5,EPN5,Samuele is an asshole.,A,pej,test,neg,NEU,NULL
1776949466,d4cee26f49ed4e79de6f255c85c1eae8,PennController,27,0,test,NULL,Scale,slider,Choice,19,1776949283262,5,EPN5,Samuele is an asshole.,A,pej,test,neg,NEU,86
1776949466,d4cee26f49ed4e79de6f255c85c1eae8,PennController,27,0,test,NULL,PennController,39,_Trial_,End,1776949283743,5,EPN5,Samuele is an asshole.,A,pej,test,neg,NEU,NULL
1776949466,d4cee26f49ed4e79de6f255c85c1eae8,PennController,67,0,test,NULL,PennController,79,_Trial_,Start,1776949283745,9,ENF9,Nicola is unreliable.,A,adj,filler,neg,AO,NULL
1776949466,d4cee26f49ed4e79de6f255c85c1eae8,PennController,67,0,test,NULL,PennController,79,_Header_,Start,1776949283745,9,ENF9,Nicola is unreliable.,A,adj,filler,neg,AO,NULL
1776949466,d4cee26f49ed4e79de6f255c85c1eae8,PennController,67,0,test,NULL,PennController,79,_Header_,End,1776949283997,9,ENF9,Nicola is unreliable.,A,adj,filler,neg,AO,NULL
1776949466,d4cee26f49ed4e79de6f255c85c1eae8,PennController,67,0,test,NULL,Scale,slider,Choice,30,1776949284389,9,ENF9,Nicola is unreliable.,A,adj,filler,neg,AO,74
1776949466,d4cee26f49ed4e79de6f255c85c1eae8,PennController,67,0,test,NULL,PennController,79,_Trial_,End,1776949284947,9,ENF9,Nicola is unreliable.,A,adj,filler,neg,AO,NULL
1776949466,d4cee26f49ed4e79de6f255c85c1eae8,PennController,79,0,test,NULL,PennController,91,_Trial_,Start,1776949284949,21,ENF21,Roberto is honest.,A,adj,filler,pos,AO,NULL
1776949466,d4cee26f49ed4e79de6f255c85c1eae8,PennController,79,0,test,NULL,PennController,91,_Header_,Start,1776949284949,21,ENF21,Roberto is honest.,A,adj,filler,pos,AO,NULL
1776949466,d4cee26f49ed4e79de6f255c85c1eae8,PennController,79,0,test,NULL,PennController,91,_Header_,End,1776949285202,21,ENF21,Roberto is honest.,A,adj,filler,pos,AO,NULL
1776949466,d4cee26f49ed4e79de6f255c85c1eae8,PennController,79,0,test,NULL,Scale,slider,Choice,26,1776949285735,21,ENF21,Roberto is honest.,A,adj,filler,pos,AO,95
1776949466,d4cee26f49ed4e79de6f255c85c1eae8,PennController,79,0,test,NULL,PennController,91,_Trial_,End,1776949286234,21,ENF21,Roberto is honest.,A,adj,filler,pos,AO,NULL
1776949466,d4cee26f49ed4e79de6f255c85c1eae8,PennController,31,0,test,NULL,PennController,43,_Trial_,Start,1776949286235,9,EPN9,Edoardo is an asshole.,A,pej,test,neg,TO,NULL
1776949466,d4cee26f49ed4e79de6f255c85c1eae8,PennController,31,0,test,NULL,PennController,43,_Header_,Start,1776949286235,9,EPN9,Edoardo is an asshole.,A,pej,test,neg,TO,NULL
1776949466,d4cee26f49ed4e79de6f255c85c1eae8,PennController,31,0,test,NULL,PennController,43,_Header_,End,1776949286489,9,EPN9,Edoardo is an asshole.,A,pej,test,neg,TO,NULL
1776949466,d4cee26f49ed4e79de6f255c85c1eae8,PennController,31,0,test,NULL,Scale,slider,Choice,28,1776949287075,9,EPN9,Edoardo is an asshole.,A,pej,test,neg,TO,100
1776949466,d4cee26f49ed4e79de6f255c85c1eae8,PennController,31,0,test,NULL,PennController,43,_Trial_,End,1776949287518,9,EPN9,Edoardo is an asshole.,A,pej,test,neg,TO,NULL
1776949466,d4cee26f49ed4e79de6f255c85c1eae8,PennController,58,0,test,NULL,PennController,70,_Trial_,Start,1776949287520,9,EAP9,Giulia is discreet.,A,adj,test,pos,TO,NULL
1776949466,d4cee26f49ed4e79de6f255c85c1eae8,PennController,58,0,test,NULL,PennController,70,_Header_,Start,1776949287520,9,EAP9,Giulia is discreet.,A,adj,test,pos,TO,NULL
1776949466,d4cee26f49ed4e79de6f255c85c1eae8,PennController,58,0,test,NULL,PennController,70,_Header_,End,1776949287771,9,EAP9,Giulia is discreet.,A,adj,test,pos,TO,NULL
1776949466,d4cee26f49ed4e79de6f255c85c1eae8,PennController,58,0,test,NULL,Scale,slider,Choice,22,1776949288178,9,EAP9,Giulia is discreet.,A,adj,test,pos,TO,123
1776949466,d4cee26f49ed4e79de6f255c85c1eae8,PennController,58,0,test,NULL,PennController,70,_Trial_,End,1776949288983,9,EAP9,Giulia is discreet.,A,adj,test,pos,TO,NULL
1776949466,d4cee26f49ed4e79de6f255c85c1eae8,PennController,78,0,test,NULL,PennController,90,_Trial_,Start,1776949288985,20,ENF20,Giulia is reliable.,A,adj,filler,pos,AO,NULL
1776949466,d4cee26f49ed4e79de6f255c85c1eae8,PennController,78,0,test,NULL,PennController,90,_Header_,Start,1776949288985,20,ENF20,Giulia is reliable.,A,adj,filler,pos,AO,NULL
1776949466,d4cee26f49ed4e79de6f255c85c1eae8,PennController,78,0,test,NULL,PennController,90,_Header_,End,1776949289239,20,ENF20,Giulia is reliable.,A,adj,filler,pos,AO,NULL
1776949466,d4cee26f49ed4e79de6f255c85c1eae8,PennController,78,0,test,NULL,Scale,slider,Choice,36,1776949289832,20,ENF20,Giulia is reliable.,A,adj,filler,pos,AO,75
1776949466,d4cee26f49ed4e79de6f255c85c1eae8,PennController,78,0,test,NULL,PennController,90,_Trial_,End,1776949290313,20,ENF20,Giulia is reliable.,A,adj,filler,pos,AO,NULL
1776949466,d4cee26f49ed4e79de6f255c85c1eae8,PennController,55,0,test,NULL,PennController,67,_Trial_,Start,1776949290315,6,EAP6,Alberto is loyal.,A,adj,test,pos,TO,NULL
1776949466,d4cee26f49ed4e79de6f255c85c1eae8,PennController,55,0,test,NULL,PennController,67,_Header_,Start,1776949290315,6,EAP6,Alberto is loyal.,A,adj,test,pos,TO,NULL
1776949466,d4cee26f49ed4e79de6f255c85c1eae8,PennController,55,0,test,NULL,PennController,67,_Header_,End,1776949290568,6,EAP6,Alberto is loyal.,A,adj,test,pos,TO,NULL
1776949466,d4cee26f49ed4e79de6f255c85c1eae8,PennController,55,0,test,NULL,Scale,slider,Choice,28,1776949291076,6,EAP6,Alberto is loyal.,A,adj,test,pos,TO,83
1776949466,d4cee26f49ed4e79de6f255c85c1eae8,PennController,55,0,test,NULL,PennController,67,_Trial_,End,1776949291507,6,EAP6,Alberto is loyal.,A,adj,test,pos,TO,NULL
1776949466,d4cee26f49ed4e79de6f255c85c1eae8,PennController,29,0,test,NULL,PennController,41,_Trial_,Start,1776949291509,7,EPN7,Marco is an asshole.,A,pej,test,neg,AO,NULL
1776949466,d4cee26f49ed4e79de6f255c85c1eae8,PennController,29,0,test,NULL,PennController,41,_Header_,Start,1776949291509,7,EPN7,Marco is an asshole.,A,pej,test,neg,AO,NULL
1776949466,d4cee26f49ed4e79de6f255c85c1eae8,PennController,29,0,test,NULL,PennController,41,_Header_,End,1776949291763,7,EPN7,Marco is an asshole.,A,pej,test,neg,AO,NULL
1776949466,d4cee26f49ed4e79de6f255c85c1eae8,PennController,29,0,test,NULL,Scale,slider,Choice,29,1776949292172,7,EPN7,Marco is an asshole.,A,pej,test,neg,AO,85
1776949466,d4cee26f49ed4e79de6f255c85c1eae8,PennController,29,0,test,NULL,PennController,41,_Trial_,End,1776949292631,7,EPN7,Marco is an asshole.,A,pej,test,neg,AO,NULL
1776949466,d4cee26f49ed4e79de6f255c85c1eae8,PennController,42,0,test,NULL,PennController,54,_Trial_,Start,1776949292632,2,EPP2,Lorenza is a sweetheart.,A,pej,test,pos,NEU,NULL
1776949466,d4cee26f49ed4e79de6f255c85c1eae8,PennController,42,0,test,NULL,PennController,54,_Header_,Start,1776949292632,2,EPP2,Lorenza is a sweetheart.,A,pej,test,pos,NEU,NULL
1776949466,d4cee26f49ed4e79de6f255c85c1eae8,PennController,42,0,test,NULL,PennController,54,_Header_,End,1776949292884,2,EPP2,Lorenza is a sweetheart.,A,pej,test,pos,NEU,NULL
1776949466,d4cee26f49ed4e79de6f255c85c1eae8,PennController,42,0,test,NULL,Scale,slider,Choice,27,1776949293273,2,EPP2,Lorenza is a sweetheart.,A,pej,test,pos,NEU,80
1776949466,d4cee26f49ed4e79de6f255c85c1eae8,PennController,42,0,test,NULL,PennController,54,_Trial_,End,1776949293761,2,EPP2,Lorenza is a sweetheart.,A,pej,test,pos,NEU,NULL
1776949466,d4cee26f49ed4e79de6f255c85c1eae8,PennController,35,0,test,NULL,PennController,47,_Trial_,Start,1776949293766,3,EAN4,Nicola is unreliable.,A,adj,test,neg,AO,NULL
1776949466,d4cee26f49ed4e79de6f255c85c1eae8,PennController,35,0,test,NULL,PennController,47,_Header_,Start,1776949293766,3,EAN4,Nicola is unreliable.,A,adj,test,neg,AO,NULL
1776949466,d4cee26f49ed4e79de6f255c85c1eae8,PennController,35,0,test,NULL,PennController,47,_Header_,End,1776949294016,3,EAN4,Nicola is unreliable.,A,adj,test,neg,AO,NULL
1776949466,d4cee26f49ed4e79de6f255c85c1eae8,PennController,35,0,test,NULL,Scale,slider,Choice,26,1776949294573,3,EAN4,Nicola is unreliable.,A,adj,test,neg,AO,100
1776949466,d4cee26f49ed4e79de6f255c85c1eae8,PennController,35,0,test,NULL,PennController,47,_Trial_,End,1776949295145,3,EAN4,Nicola is unreliable.,A,adj,test,neg,AO,NULL
1776949466,d4cee26f49ed4e79de6f255c85c1eae8,PennController,30,0,test,NULL,PennController,42,_Trial_,Start,1776949295147,8,EPN8,Alice is an asshole.,A,pej,test,neg,NEU,NULL
1776949466,d4cee26f49ed4e79de6f255c85c1eae8,PennController,30,0,test,NULL,PennController,42,_Header_,Start,1776949295147,8,EPN8,Alice is an asshole.,A,pej,test,neg,NEU,NULL
1776949466,d4cee26f49ed4e79de6f255c85c1eae8,PennController,30,0,test,NULL,PennController,42,_Header_,End,1776949295398,8,EPN8,Alice is an asshole.,A,pej,test,neg,NEU,NULL
1776949466,d4cee26f49ed4e79de6f255c85c1eae8,PennController,30,0,test,NULL,Scale,slider,Choice,30,1776949295848,8,EPN8,Alice is an asshole.,A,pej,test,neg,NEU,106
1776949466,d4cee26f49ed4e79de6f255c85c1eae8,PennController,30,0,test,NULL,PennController,42,_Trial_,End,1776949296517,8,EPN8,Alice is an asshole.,A,pej,test,neg,NEU,NULL
1776949466,d4cee26f49ed4e79de6f255c85c1eae8,PennController,57,0,test,NULL,PennController,69,_Trial_,Start,1776949296518,8,EAP8,Rebecca is cautious.,A,adj,test,pos,NEU,NULL
1776949466,d4cee26f49ed4e79de6f255c85c1eae8,PennController,57,0,test,NULL,PennController,69,_Header_,Start,1776949296518,8,EAP8,Rebecca is cautious.,A,adj,test,pos,NEU,NULL
1776949466,d4cee26f49ed4e79de6f255c85c1eae8,PennController,57,0,test,NULL,PennController,69,_Header_,End,1776949296770,8,EAP8,Rebecca is cautious.,A,adj,test,pos,NEU,NULL
1776949466,d4cee26f49ed4e79de6f255c85c1eae8,PennController,57,0,test,NULL,Scale,slider,Choice,26,1776949297167,8,EAP8,Rebecca is cautious.,A,adj,test,pos,NEU,109
1776949466,d4cee26f49ed4e79de6f255c85c1eae8,PennController,57,0,test,NULL,PennController,69,_Trial_,End,1776949297610,8,EAP8,Rebecca is cautious.,A,adj,test,pos,NEU,NULL
1776949466,d4cee26f49ed4e79de6f255c85c1eae8,PennController,34,0,test,NULL,PennController,46,_Trial_,Start,1776949297615,3,EAN3,Edoardo is rude.,A,adj,test,neg,TO,NULL
1776949466,d4cee26f49ed4e79de6f255c85c1eae8,PennController,34,0,test,NULL,PennController,46,_Header_,Start,1776949297615,3,EAN3,Edoardo is rude.,A,adj,test,neg,TO,NULL
1776949466,d4cee26f49ed4e79de6f255c85c1eae8,PennController,34,0,test,NULL,PennController,46,_Header_,End,1776949297868,3,EAN3,Edoardo is rude.,A,adj,test,neg,TO,NULL
1776949466,d4cee26f49ed4e79de6f255c85c1eae8,PennController,34,0,test,NULL,Scale,slider,Choice,27,1776949300014,3,EAN3,Edoardo is rude.,A,adj,test,neg,TO,99
1776949466,d4cee26f49ed4e79de6f255c85c1eae8,PennController,34,0,test,NULL,PennController,46,_Trial_,End,1776949300381,3,EAN3,Edoardo is rude.,A,adj,test,neg,TO,NULL
1776949466,d4cee26f49ed4e79de6f255c85c1eae8,PennController,70,0,test,NULL,PennController,82,_Trial_,Start,1776949300384,12,ENF12,Valentina is spiteful.,A,adj,filler,neg,AO,NULL
1776949466,d4cee26f49ed4e79de6f255c85c1eae8,PennController,70,0,test,NULL,PennController,82,_Header_,Start,1776949300384,12,ENF12,Valentina is spiteful.,A,adj,filler,neg,AO,NULL
1776949466,d4cee26f49ed4e79de6f255c85c1eae8,PennController,70,0,test,NULL,PennController,82,_Header_,End,1776949300638,12,ENF12,Valentina is spiteful.,A,adj,filler,neg,AO,NULL
1776949466,d4cee26f49ed4e79de6f255c85c1eae8,PennController,70,0,test,NULL,Scale,slider,Choice,26,1776949301341,12,ENF12,Valentina is spiteful.,A,adj,filler,neg,AO,101
1776949466,d4cee26f49ed4e79de6f255c85c1eae8,PennController,70,0,test,NULL,PennController,82,_Trial_,End,1776949301933,12,ENF12,Valentina is spiteful.,A,adj,filler,neg,AO,NULL
1776949466,d4cee26f49ed4e79de6f255c85c1eae8,PennController,74,0,test,NULL,PennController,86,_Trial_,Start,1776949301935,16,ENF16,Valentina is loyal.,A,adj,filler,pos,TO,NULL
1776949466,d4cee26f49ed4e79de6f255c85c1eae8,PennController,74,0,test,NULL,PennController,86,_Header_,Start,1776949301935,16,ENF16,Valentina is loyal.,A,adj,filler,pos,TO,NULL
1776949466,d4cee26f49ed4e79de6f255c85c1eae8,PennController,74,0,test,NULL,PennController,86,_Header_,End,1776949302188,16,ENF16,Valentina is loyal.,A,adj,filler,pos,TO,NULL
1776949466,d4cee26f49ed4e79de6f255c85c1eae8,PennController,74,0,test,NULL,Scale,slider,Choice,32,1776949302608,16,ENF16,Valentina is loyal.,A,adj,filler,pos,TO,83
1776949466,d4cee26f49ed4e79de6f255c85c1eae8,PennController,74,0,test,NULL,PennController,86,_Trial_,End,1776949303253,16,ENF16,Valentina is loyal.,A,adj,filler,pos,TO,NULL
1776949466,d4cee26f49ed4e79de6f255c85c1eae8,PennController,47,0,test,NULL,PennController,59,_Trial_,Start,1776949303255,7,EPP7,Federico is a sweetheart.,A,pej,test,pos,AO,NULL
1776949466,d4cee26f49ed4e79de6f255c85c1eae8,PennController,47,0,test,NULL,PennController,59,_Header_,Start,1776949303255,7,EPP7,Federico is a sweetheart.,A,pej,test,pos,AO,NULL
1776949466,d4cee26f49ed4e79de6f255c85c1eae8,PennController,47,0,test,NULL,PennController,59,_Header_,End,1776949303510,7,EPP7,Federico is a sweetheart.,A,pej,test,pos,AO,NULL
1776949466,d4cee26f49ed4e79de6f255c85c1eae8,PennController,47,0,test,NULL,Scale,slider,Choice,31,1776949303968,7,EPP7,Federico is a sweetheart.,A,pej,test,pos,AO,97
1776949466,d4cee26f49ed4e79de6f255c85c1eae8,PennController,47,0,test,NULL,PennController,59,_Trial_,End,1776949304878,7,EPP7,Federico is a sweetheart.,A,pej,test,pos,AO,NULL
1776949466,d4cee26f49ed4e79de6f255c85c1eae8,PennController,51,0,test,NULL,PennController,63,_Trial_,Start,1776949304881,2,EAP2,Sara is graceful.,A,adj,test,pos,NEU,NULL
1776949466,d4cee26f49ed4e79de6f255c85c1eae8,PennController,51,0,test,NULL,PennController,63,_Header_,Start,1776949304881,2,EAP2,Sara is graceful.,A,adj,test,pos,NEU,NULL
1776949466,d4cee26f49ed4e79de6f255c85c1eae8,PennController,51,0,test,NULL,PennController,63,_Header_,End,1776949305136,2,EAP2,Sara is graceful.,A,adj,test,pos,NEU,NULL
1776949466,d4cee26f49ed4e79de6f255c85c1eae8,PennController,51,0,test,NULL,Scale,slider,Choice,23,1776949305624,2,EAP2,Sara is graceful.,A,adj,test,pos,NEU,65
1776949466,d4cee26f49ed4e79de6f255c85c1eae8,PennController,51,0,test,NULL,PennController,63,_Trial_,End,1776949306052,2,EAP2,Sara is graceful.,A,adj,test,pos,NEU,NULL
1776949466,d4cee26f49ed4e79de6f255c85c1eae8,PennController,33,0,test,NULL,PennController,45,_Trial_,Start,1776949306052,2,EAN2,Gabriele is obscene.,A,adj,test,neg,NEU,NULL
1776949466,d4cee26f49ed4e79de6f255c85c1eae8,PennController,33,0,test,NULL,PennController,45,_Header_,Start,1776949306052,2,EAN2,Gabriele is obscene.,A,adj,test,neg,NEU,NULL
1776949466,d4cee26f49ed4e79de6f255c85c1eae8,PennController,33,0,test,NULL,PennController,45,_Header_,End,1776949306306,2,EAN2,Gabriele is obscene.,A,adj,test,neg,NEU,NULL
1776949466,d4cee26f49ed4e79de6f255c85c1eae8,PennController,33,0,test,NULL,Scale,slider,Choice,32,1776949306578,2,EAN2,Gabriele is obscene.,A,adj,test,neg,NEU,108
1776949466,d4cee26f49ed4e79de6f255c85c1eae8,PennController,33,0,test,NULL,PennController,45,_Trial_,End,1776949307079,2,EAN2,Gabriele is obscene.,A,adj,test,neg,NEU,NULL
1776949466,d4cee26f49ed4e79de6f255c85c1eae8,PennController,82,0,test,NULL,PennController,94,_Trial_,Start,1776949307081,24,ENF24,Rebecca is cautious.,A,adj,filler,pos,AO,NULL
1776949466,d4cee26f49ed4e79de6f255c85c1eae8,PennController,82,0,test,NULL,PennController,94,_Header_,Start,1776949307081,24,ENF24,Rebecca is cautious.,A,adj,filler,pos,AO,NULL
1776949466,d4cee26f49ed4e79de6f255c85c1eae8,PennController,82,0,test,NULL,PennController,94,_Header_,End,1776949307334,24,ENF24,Rebecca is cautious.,A,adj,filler,pos,AO,NULL
1776949466,d4cee26f49ed4e79de6f255c85c1eae8,PennController,82,0,test,NULL,Scale,slider,Choice,34,1776949307951,24,ENF24,Rebecca is cautious.,A,adj,filler,pos,AO,99
1776949466,d4cee26f49ed4e79de6f255c85c1eae8,PennController,82,0,test,NULL,PennController,94,_Trial_,End,1776949308407,24,ENF24,Rebecca is cautious.,A,adj,filler,pos,AO,NULL
1776949466,d4cee26f49ed4e79de6f255c85c1eae8,PennController,25,0,test,NULL,PennController,37,_Trial_,Start,1776949308409,3,EPN3,Alberto is an asshole.,A,pej,test,neg,TO,NULL
1776949466,d4cee26f49ed4e79de6f255c85c1eae8,PennController,25,0,test,NULL,PennController,37,_Header_,Start,1776949308409,3,EPN3,Alberto is an asshole.,A,pej,test,neg,TO,NULL
1776949466,d4cee26f49ed4e79de6f255c85c1eae8,PennController,25,0,test,NULL,PennController,37,_Header_,End,1776949308661,3,EPN3,Alberto is an asshole.,A,pej,test,neg,TO,NULL
1776949466,d4cee26f49ed4e79de6f255c85c1eae8,PennController,25,0,test,NULL,Scale,slider,Choice,27,1776949309171,3,EPN3,Alberto is an asshole.,A,pej,test,neg,TO,86
1776949466,d4cee26f49ed4e79de6f255c85c1eae8,PennController,25,0,test,NULL,PennController,37,_Trial_,End,1776949309598,3,EPN3,Alberto is an asshole.,A,pej,test,neg,TO,NULL
1776949466,d4cee26f49ed4e79de6f255c85c1eae8,PennController,49,0,test,NULL,PennController,61,_Trial_,Start,1776949309599,9,EPP9,Lorenzo is a sweetheart.,A,pej,test,pos,TO,NULL
1776949466,d4cee26f49ed4e79de6f255c85c1eae8,PennController,49,0,test,NULL,PennController,61,_Header_,Start,1776949309599,9,EPP9,Lorenzo is a sweetheart.,A,pej,test,pos,TO,NULL
1776949466,d4cee26f49ed4e79de6f255c85c1eae8,PennController,49,0,test,NULL,PennController,61,_Header_,End,1776949309852,9,EPP9,Lorenzo is a sweetheart.,A,pej,test,pos,TO,NULL
1776949466,d4cee26f49ed4e79de6f255c85c1eae8,PennController,49,0,test,NULL,Scale,slider,Choice,28,1776949310247,9,EPP9,Lorenzo is a sweetheart.,A,pej,test,pos,TO,75
1776949466,d4cee26f49ed4e79de6f255c85c1eae8,PennController,49,0,test,NULL,PennController,61,_Trial_,End,1776949310665,9,EPP9,Lorenzo is a sweetheart.,A,pej,test,pos,TO,NULL
1776949466,d4cee26f49ed4e79de6f255c85c1eae8,PennController,61,0,test,NULL,PennController,73,_Trial_,Start,1776949310668,3,ENF3,Matteo is unreliable.,A,adj,filler,neg,TO,NULL
1776949466,d4cee26f49ed4e79de6f255c85c1eae8,PennController,61,0,test,NULL,PennController,73,_Header_,Start,1776949310668,3,ENF3,Matteo is unreliable.,A,adj,filler,neg,TO,NULL
1776949466,d4cee26f49ed4e79de6f255c85c1eae8,PennController,61,0,test,NULL,PennController,73,_Header_,End,1776949310920,3,ENF3,Matteo is unreliable.,A,adj,filler,neg,TO,NULL
1776949466,d4cee26f49ed4e79de6f255c85c1eae8,PennController,61,0,test,NULL,Scale,slider,Choice,30,1776949311505,3,ENF3,Matteo is unreliable.,A,adj,filler,neg,TO,92
1776949466,d4cee26f49ed4e79de6f255c85c1eae8,PennController,61,0,test,NULL,PennController,73,_Trial_,End,1776949311931,3,ENF3,Matteo is unreliable.,A,adj,filler,neg,TO,NULL
1776949466,d4cee26f49ed4e79de6f255c85c1eae8,PennController,48,0,test,NULL,PennController,60,_Trial_,Start,1776949311932,8,EPP8,Paolo is a sweetheart.,A,pej,test,pos,NEU,NULL
1776949466,d4cee26f49ed4e79de6f255c85c1eae8,PennController,48,0,test,NULL,PennController,60,_Header_,Start,1776949311932,8,EPP8,Paolo is a sweetheart.,A,pej,test,pos,NEU,NULL
1776949466,d4cee26f49ed4e79de6f255c85c1eae8,PennController,48,0,test,NULL,PennController,60,_Header_,End,1776949312187,8,EPP8,Paolo is a sweetheart.,A,pej,test,pos,NEU,NULL
1776949466,d4cee26f49ed4e79de6f255c85c1eae8,PennController,48,0,test,NULL,Scale,slider,Choice,32,1776949312787,8,EPP8,Paolo is a sweetheart.,A,pej,test,pos,NEU,83
1776949466,d4cee26f49ed4e79de6f255c85c1eae8,PennController,48,0,test,NULL,PennController,60,_Trial_,End,1776949313196,8,EPP8,Paolo is a sweetheart.,A,pej,test,pos,NEU,NULL
1776949466,d4cee26f49ed4e79de6f255c85c1eae8,PennController,65,0,test,NULL,PennController,77,_Trial_,Start,1776949313198,7,ENF7,Marco is arrogant.,A,adj,filler,neg,AO,NULL
1776949466,d4cee26f49ed4e79de6f255c85c1eae8,PennController,65,0,test,NULL,PennController,77,_Header_,Start,1776949313198,7,ENF7,Marco is arrogant.,A,adj,filler,neg,AO,NULL
1776949466,d4cee26f49ed4e79de6f255c85c1eae8,PennController,65,0,test,NULL,PennController,77,_Header_,End,1776949313450,7,ENF7,Marco is arrogant.,A,adj,filler,neg,AO,NULL
1776949466,d4cee26f49ed4e79de6f255c85c1eae8,PennController,65,0,test,NULL,Scale,slider,Choice,32,1776949314063,7,ENF7,Marco is arrogant.,A,adj,filler,neg,AO,101
1776949466,d4cee26f49ed4e79de6f255c85c1eae8,PennController,65,0,test,NULL,PennController,77,_Trial_,End,1776949314490,7,ENF7,Marco is arrogant.,A,adj,filler,neg,AO,NULL
1776949466,d4cee26f49ed4e79de6f255c85c1eae8,PennController,52,0,test,NULL,PennController,64,_Trial_,Start,1776949314493,3,EAP3,Chiara is wise.,A,adj,test,pos,TO,NULL
1776949466,d4cee26f49ed4e79de6f255c85c1eae8,PennController,52,0,test,NULL,PennController,64,_Header_,Start,1776949314493,3,EAP3,Chiara is wise.,A,adj,test,pos,TO,NULL
1776949466,d4cee26f49ed4e79de6f255c85c1eae8,PennController,52,0,test,NULL,PennController,64,_Header_,End,1776949314744,3,EAP3,Chiara is wise.,A,adj,test,pos,TO,NULL
1776949466,d4cee26f49ed4e79de6f255c85c1eae8,PennController,52,0,test,NULL,Scale,slider,Choice,31,1776949315339,3,EAP3,Chiara is wise.,A,adj,test,pos,TO,76
1776949466,d4cee26f49ed4e79de6f255c85c1eae8,PennController,52,0,test,NULL,PennController,64,_Trial_,End,1776949315748,3,EAP3,Chiara is wise.,A,adj,test,pos,TO,NULL
1776949466,d4cee26f49ed4e79de6f255c85c1eae8,PennController,73,0,test,NULL,PennController,85,_Trial_,Start,1776949315749,15,ENF15,Federico is honest.,A,adj,filler,pos,TO,NULL
1776949466,d4cee26f49ed4e79de6f255c85c1eae8,PennController,73,0,test,NULL,PennController,85,_Header_,Start,1776949315749,15,ENF15,Federico is honest.,A,adj,filler,pos,TO,NULL
1776949466,d4cee26f49ed4e79de6f255c85c1eae8,PennController,73,0,test,NULL,PennController,85,_Header_,End,1776949316004,15,ENF15,Federico is honest.,A,adj,filler,pos,TO,NULL
1776949466,d4cee26f49ed4e79de6f255c85c1eae8,PennController,73,0,test,NULL,Scale,slider,Choice,33,1776949316445,15,ENF15,Federico is honest.,A,adj,filler,pos,TO,107
1776949466,d4cee26f49ed4e79de6f255c85c1eae8,PennController,73,0,test,NULL,PennController,85,_Trial_,End,1776949316890,15,ENF15,Federico is honest.,A,adj,filler,pos,TO,NULL
1776949466,d4cee26f49ed4e79de6f255c85c1eae8,PennController,44,0,test,NULL,PennController,56,_Trial_,Start,1776949316892,3,EPP4,Matteo is a sweetheart.,A,pej,test,pos,AO,NULL
1776949466,d4cee26f49ed4e79de6f255c85c1eae8,PennController,44,0,test,NULL,PennController,56,_Header_,Start,1776949316892,3,EPP4,Matteo is a sweetheart.,A,pej,test,pos,AO,NULL
1776949466,d4cee26f49ed4e79de6f255c85c1eae8,PennController,44,0,test,NULL,PennController,56,_Header_,End,1776949317142,3,EPP4,Matteo is a sweetheart.,A,pej,test,pos,AO,NULL
1776949466,d4cee26f49ed4e79de6f255c85c1eae8,PennController,44,0,test,NULL,Scale,slider,Choice,34,1776949317935,3,EPP4,Matteo is a sweetheart.,A,pej,test,pos,AO,109
1776949466,d4cee26f49ed4e79de6f255c85c1eae8,PennController,44,0,test,NULL,PennController,56,_Trial_,End,1776949318830,3,EPP4,Matteo is a sweetheart.,A,pej,test,pos,AO,NULL
1776949466,d4cee26f49ed4e79de6f255c85c1eae8,PennController,28,0,test,NULL,PennController,40,_Trial_,Start,1776949318833,6,EPN6,Giovanni is an asshole.,A,pej,test,neg,TO,NULL
1776949466,d4cee26f49ed4e79de6f255c85c1eae8,PennController,28,0,test,NULL,PennController,40,_Header_,Start,1776949318833,6,EPN6,Giovanni is an asshole.,A,pej,test,neg,TO,NULL
1776949466,d4cee26f49ed4e79de6f255c85c1eae8,PennController,28,0,test,NULL,PennController,40,_Header_,End,1776949319086,6,EPN6,Giovanni is an asshole.,A,pej,test,neg,TO,NULL
1776949466,d4cee26f49ed4e79de6f255c85c1eae8,PennController,28,0,test,NULL,Scale,slider,Choice,34,1776949319462,6,EPN6,Giovanni is an asshole.,A,pej,test,neg,TO,82
1776949466,d4cee26f49ed4e79de6f255c85c1eae8,PennController,28,0,test,NULL,PennController,40,_Trial_,End,1776949320211,6,EPN6,Giovanni is an asshole.,A,pej,test,neg,TO,NULL
1776949466,d4cee26f49ed4e79de6f255c85c1eae8,PennController,72,0,test,NULL,PennController,84,_Trial_,Start,1776949320213,14,ENF14,Chiara is trustworthy.,A,adj,filler,pos,TO,NULL
1776949466,d4cee26f49ed4e79de6f255c85c1eae8,PennController,72,0,test,NULL,PennController,84,_Header_,Start,1776949320213,14,ENF14,Chiara is trustworthy.,A,adj,filler,pos,TO,NULL
1776949466,d4cee26f49ed4e79de6f255c85c1eae8,PennController,72,0,test,NULL,PennController,84,_Header_,End,1776949320467,14,ENF14,Chiara is trustworthy.,A,adj,filler,pos,TO,NULL
1776949466,d4cee26f49ed4e79de6f255c85c1eae8,PennController,72,0,test,NULL,Scale,slider,Choice,29,1776949320884,14,ENF14,Chiara is trustworthy.,A,adj,filler,pos,TO,76
1776949466,d4cee26f49ed4e79de6f255c85c1eae8,PennController,72,0,test,NULL,PennController,84,_Trial_,End,1776949322069,14,ENF14,Chiara is trustworthy.,A,adj,filler,pos,TO,NULL
1776949466,d4cee26f49ed4e79de6f255c85c1eae8,PennController,64,0,test,NULL,PennController,76,_Trial_,Start,1776949322071,6,ENF6,Giovanni is jealous.,A,adj,filler,neg,TO,NULL
1776949466,d4cee26f49ed4e79de6f255c85c1eae8,PennController,64,0,test,NULL,PennController,76,_Header_,Start,1776949322071,6,ENF6,Giovanni is jealous.,A,adj,filler,neg,TO,NULL
1776949466,d4cee26f49ed4e79de6f255c85c1eae8,PennController,64,0,test,NULL,PennController,76,_Header_,End,1776949322325,6,ENF6,Giovanni is jealous.,A,adj,filler,neg,TO,NULL
1776949466,d4cee26f49ed4e79de6f255c85c1eae8,PennController,64,0,test,NULL,Scale,slider,Choice,34,1776949322668,6,ENF6,Giovanni is jealous.,A,adj,filler,neg,TO,72
1776949466,d4cee26f49ed4e79de6f255c85c1eae8,PennController,64,0,test,NULL,PennController,76,_Trial_,End,1776949323236,6,ENF6,Giovanni is jealous.,A,adj,filler,neg,TO,NULL
1776949466,d4cee26f49ed4e79de6f255c85c1eae8,PennController,63,0,test,NULL,PennController,75,_Trial_,Start,1776949323238,5,ENF5,Paolo is manipulative.,A,adj,filler,neg,TO,NULL
1776949466,d4cee26f49ed4e79de6f255c85c1eae8,PennController,63,0,test,NULL,PennController,75,_Header_,Start,1776949323238,5,ENF5,Paolo is manipulative.,A,adj,filler,neg,TO,NULL
1776949466,d4cee26f49ed4e79de6f255c85c1eae8,PennController,63,0,test,NULL,PennController,75,_Header_,End,1776949323489,5,ENF5,Paolo is manipulative.,A,adj,filler,neg,TO,NULL
1776949466,d4cee26f49ed4e79de6f255c85c1eae8,PennController,63,0,test,NULL,Scale,slider,Choice,30,1776949323883,5,ENF5,Paolo is manipulative.,A,adj,filler,neg,TO,101
1776949466,d4cee26f49ed4e79de6f255c85c1eae8,PennController,63,0,test,NULL,PennController,75,_Trial_,End,1776949324436,5,ENF5,Paolo is manipulative.,A,adj,filler,neg,TO,NULL
1776949466,d4cee26f49ed4e79de6f255c85c1eae8,PennController,81,0,test,NULL,PennController,93,_Trial_,Start,1776949324437,23,ENF23,Lorenzo is polite.,A,adj,filler,pos,AO,NULL
1776949466,d4cee26f49ed4e79de6f255c85c1eae8,PennController,81,0,test,NULL,PennController,93,_Header_,Start,1776949324437,23,ENF23,Lorenzo is polite.,A,adj,filler,pos,AO,NULL
1776949466,d4cee26f49ed4e79de6f255c85c1eae8,PennController,81,0,test,NULL,PennController,93,_Header_,End,1776949324692,23,ENF23,Lorenzo is polite.,A,adj,filler,pos,AO,NULL
1776949466,d4cee26f49ed4e79de6f255c85c1eae8,PennController,81,0,test,NULL,Scale,slider,Choice,31,1776949325295,23,ENF23,Lorenzo is polite.,A,adj,filler,pos,AO,108
1776949466,d4cee26f49ed4e79de6f255c85c1eae8,PennController,81,0,test,NULL,PennController,93,_Trial_,End,1776949326256,23,ENF23,Lorenzo is polite.,A,adj,filler,pos,AO,NULL
1776949466,d4cee26f49ed4e79de6f255c85c1eae8,PennController,40,0,test,NULL,PennController,52,_Trial_,Start,1776949326256,9,EAN9,Paolo is disloyal.,A,adj,test,neg,TO,NULL
1776949466,d4cee26f49ed4e79de6f255c85c1eae8,PennController,40,0,test,NULL,PennController,52,_Header_,Start,1776949326256,9,EAN9,Paolo is disloyal.,A,adj,test,neg,TO,NULL
1776949466,d4cee26f49ed4e79de6f255c85c1eae8,PennController,40,0,test,NULL,PennController,52,_Header_,End,1776949326508,9,EAN9,Paolo is disloyal.,A,adj,test,neg,TO,NULL
1776949466,d4cee26f49ed4e79de6f255c85c1eae8,PennController,40,0,test,NULL,Scale,slider,Choice,29,1776949326793,9,EAN9,Paolo is disloyal.,A,adj,test,neg,TO,91
1776949466,d4cee26f49ed4e79de6f255c85c1eae8,PennController,40,0,test,NULL,PennController,52,_Trial_,End,1776949327573,9,EAN9,Paolo is disloyal.,A,adj,test,neg,TO,NULL
1776949466,d4cee26f49ed4e79de6f255c85c1eae8,PennController,60,0,test,NULL,PennController,72,_Trial_,Start,1776949327575,2,ENF2,Sara is cruel.,A,adj,filler,neg,TO,NULL
1776949466,d4cee26f49ed4e79de6f255c85c1eae8,PennController,60,0,test,NULL,PennController,72,_Header_,Start,1776949327575,2,ENF2,Sara is cruel.,A,adj,filler,neg,TO,NULL
1776949466,d4cee26f49ed4e79de6f255c85c1eae8,PennController,60,0,test,NULL,PennController,72,_Header_,End,1776949327827,2,ENF2,Sara is cruel.,A,adj,filler,neg,TO,NULL
1776949466,d4cee26f49ed4e79de6f255c85c1eae8,PennController,60,0,test,NULL,Scale,slider,Choice,25,1776949328601,2,ENF2,Sara is cruel.,A,adj,filler,neg,TO,84
1776949466,d4cee26f49ed4e79de6f255c85c1eae8,PennController,60,0,test,NULL,PennController,72,_Trial_,End,1776949329029,2,ENF2,Sara is cruel.,A,adj,filler,neg,TO,NULL
1776949466,d4cee26f49ed4e79de6f255c85c1eae8,PennController,24,0,test,NULL,PennController,36,_Trial_,Start,1776949329030,2,EPN2,Giulia is an asshole.,A,pej,test,neg,NEU,NULL
1776949466,d4cee26f49ed4e79de6f255c85c1eae8,PennController,24,0,test,NULL,PennController,36,_Header_,Start,1776949329030,2,EPN2,Giulia is an asshole.,A,pej,test,neg,NEU,NULL
1776949466,d4cee26f49ed4e79de6f255c85c1eae8,PennController,24,0,test,NULL,PennController,36,_Header_,End,1776949329283,2,EPN2,Giulia is an asshole.,A,pej,test,neg,NEU,NULL
1776949466,d4cee26f49ed4e79de6f255c85c1eae8,PennController,24,0,test,NULL,Scale,slider,Choice,27,1776949329626,2,EPN2,Giulia is an asshole.,A,pej,test,neg,NEU,85
1776949466,d4cee26f49ed4e79de6f255c85c1eae8,PennController,24,0,test,NULL,PennController,36,_Trial_,End,1776949330071,2,EPN2,Giulia is an asshole.,A,pej,test,neg,NEU,NULL
1776949466,d4cee26f49ed4e79de6f255c85c1eae8,PennController,54,0,test,NULL,PennController,66,_Trial_,Start,1776949330071,5,EAP5,Filippo is reliable.,A,adj,test,pos,NEU,NULL
1776949466,d4cee26f49ed4e79de6f255c85c1eae8,PennController,54,0,test,NULL,PennController,66,_Header_,Start,1776949330071,5,EAP5,Filippo is reliable.,A,adj,test,pos,NEU,NULL
1776949466,d4cee26f49ed4e79de6f255c85c1eae8,PennController,54,0,test,NULL,PennController,66,_Header_,End,1776949330324,5,EAP5,Filippo is reliable.,A,adj,test,pos,NEU,NULL
1776949466,d4cee26f49ed4e79de6f255c85c1eae8,PennController,54,0,test,NULL,Scale,slider,Choice,29,1776949330706,5,EAP5,Filippo is reliable.,A,adj,test,pos,NEU,74
1776949466,d4cee26f49ed4e79de6f255c85c1eae8,PennController,54,0,test,NULL,PennController,66,_Trial_,End,1776949331483,5,EAP5,Filippo is reliable.,A,adj,test,pos,NEU,NULL
1776949466,d4cee26f49ed4e79de6f255c85c1eae8,PennController,76,0,test,NULL,PennController,88,_Trial_,Start,1776949331484,18,ENF18,Roberta is reliable.,A,adj,filler,pos,TO,NULL
1776949466,d4cee26f49ed4e79de6f255c85c1eae8,PennController,76,0,test,NULL,PennController,88,_Header_,Start,1776949331484,18,ENF18,Roberta is reliable.,A,adj,filler,pos,TO,NULL
1776949466,d4cee26f49ed4e79de6f255c85c1eae8,PennController,76,0,test,NULL,PennController,88,_Header_,End,1776949331734,18,ENF18,Roberta is reliable.,A,adj,filler,pos,TO,NULL
1776949466,d4cee26f49ed4e79de6f255c85c1eae8,PennController,76,0,test,NULL,Scale,slider,Choice,34,1776949332408,18,ENF18,Roberta is reliable.,A,adj,filler,pos,TO,100
1776949466,d4cee26f49ed4e79de6f255c85c1eae8,PennController,76,0,test,NULL,PennController,88,_Trial_,End,1776949332852,18,ENF18,Roberta is reliable.,A,adj,filler,pos,TO,NULL
1776949466,d4cee26f49ed4e79de6f255c85c1eae8,PennController,50,0,test,NULL,PennController,62,_Trial_,Start,1776949332854,1,EAP1,Francesco is kind.,A,adj,test,pos,AO,NULL
1776949466,d4cee26f49ed4e79de6f255c85c1eae8,PennController,50,0,test,NULL,PennController,62,_Header_,Start,1776949332854,1,EAP1,Francesco is kind.,A,adj,test,pos,AO,NULL
1776949466,d4cee26f49ed4e79de6f255c85c1eae8,PennController,50,0,test,NULL,PennController,62,_Header_,End,1776949333104,1,EAP1,Francesco is kind.,A,adj,test,pos,AO,NULL
1776949466,d4cee26f49ed4e79de6f255c85c1eae8,PennController,50,0,test,NULL,Scale,slider,Choice,28,1776949333658,1,EAP1,Francesco is kind.,A,adj,test,pos,AO,83
1776949466,d4cee26f49ed4e79de6f255c85c1eae8,PennController,50,0,test,NULL,PennController,62,_Trial_,End,1776949334477,1,EAP1,Francesco is kind.,A,adj,test,pos,AO,NULL
1776949466,d4cee26f49ed4e79de6f255c85c1eae8,PennController,41,0,test,NULL,PennController,53,_Trial_,Start,1776949334478,1,EPP1,Giulia is a sweetheart.,A,pej,test,pos,AO,NULL
1776949466,d4cee26f49ed4e79de6f255c85c1eae8,PennController,41,0,test,NULL,PennController,53,_Header_,Start,1776949334478,1,EPP1,Giulia is a sweetheart.,A,pej,test,pos,AO,NULL
1776949466,d4cee26f49ed4e79de6f255c85c1eae8,PennController,41,0,test,NULL,PennController,53,_Header_,End,1776949334731,1,EPP1,Giulia is a sweetheart.,A,pej,test,pos,AO,NULL
1776949466,d4cee26f49ed4e79de6f255c85c1eae8,PennController,41,0,test,NULL,Scale,slider,Choice,33,1776949335713,1,EPP1,Giulia is a sweetheart.,A,pej,test,pos,AO,93
1776949466,d4cee26f49ed4e79de6f255c85c1eae8,PennController,41,0,test,NULL,PennController,53,_Trial_,End,1776949336556,1,EPP1,Giulia is a sweetheart.,A,pej,test,pos,AO,NULL
1776949466,d4cee26f49ed4e79de6f255c85c1eae8,PennController,80,0,test,NULL,PennController,92,_Trial_,Start,1776949336558,22,ENF22,Francesca is wise.,A,adj,filler,pos,AO,NULL
1776949466,d4cee26f49ed4e79de6f255c85c1eae8,PennController,80,0,test,NULL,PennController,92,_Header_,Start,1776949336558,22,ENF22,Francesca is wise.,A,adj,filler,pos,AO,NULL
1776949466,d4cee26f49ed4e79de6f255c85c1eae8,PennController,80,0,test,NULL,PennController,92,_Header_,End,1776949336810,22,ENF22,Francesca is wise.,A,adj,filler,pos,AO,NULL
1776949466,d4cee26f49ed4e79de6f255c85c1eae8,PennController,80,0,test,NULL,Scale,slider,Choice,33,1776949337479,22,ENF22,Francesca is wise.,A,adj,filler,pos,AO,109
1776949466,d4cee26f49ed4e79de6f255c85c1eae8,PennController,80,0,test,NULL,PennController,92,_Trial_,End,1776949337925,22,ENF22,Francesca is wise.,A,adj,filler,pos,AO,NULL
# 13. Comments.
1776949466,d4cee26f49ed4e79de6f255c85c1eae8,PennController,91,0,p2_intro,NULL,PennController,10,_Trial_,Start,1776949337927,NULL
1776949466,d4cee26f49ed4e79de6f255c85c1eae8,PennController,91,0,p2_intro,NULL,PennController,10,_Header_,Start,1776949337927,NULL
1776949466,d4cee26f49ed4e79de6f255c85c1eae8,PennController,91,0,p2_intro,NULL,PennController,10,_Header_,End,1776949338178,NULL
1776949466,d4cee26f49ed4e79de6f255c85c1eae8,PennController,91,0,p2_intro,NULL,PennController,10,_Trial_,End,1776949340070,NULL
1776949466,d4cee26f49ed4e79de6f255c85c1eae8,PennController,92,0,instructions3,NULL,PennController,11,_Trial_,Start,1776949340073,NULL
1776949466,d4cee26f49ed4e79de6f255c85c1eae8,PennController,92,0,instructions3,NULL,PennController,11,_Header_,Start,1776949340073,NULL
1776949466,d4cee26f49ed4e79de6f255c85c1eae8,PennController,92,0,instructions3,NULL,PennController,11,_Header_,End,1776949340324,NULL
1776949466,d4cee26f49ed4e79de6f255c85c1eae8,PennController,92,0,instructions3,NULL,PennController,11,_Trial_,End,1776949343786,NULL
1776949466,d4cee26f49ed4e79de6f255c85c1eae8,PennController,4,0,rating_task,NULL,PennController,16,_Trial_,Start,1776949343788,NULL
1776949466,d4cee26f49ed4e79de6f255c85c1eae8,PennController,4,0,rating_task,NULL,PennController,16,_Header_,Start,1776949343788,NULL
1776949466,d4cee26f49ed4e79de6f255c85c1eae8,PennController,4,0,rating_task,NULL,PennController,16,_Header_,End,1776949344041,NULL
1776949466,d4cee26f49ed4e79de6f255c85c1eae8,PennController,4,0,rating_task,NULL,Scale,likert_valence,Choice,1,1776949345364,NULL
1776949466,d4cee26f49ed4e79de6f255c85c1eae8,PennController,4,0,rating_task,NULL,Scale,likert_arousal,Choice,1,1776949346083,NULL
1776949466,d4cee26f49ed4e79de6f255c85c1eae8,PennController,4,0,rating_task,NULL,Var,Word,Final,sweetheart,1776949346881,Value at the end of the trial
1776949466,d4cee26f49ed4e79de6f255c85c1eae8,PennController,4,0,rating_task,NULL,Var,notFit,Final,no,1776949346881,Value at the end of the trial
1776949466,d4cee26f49ed4e79de6f255c85c1eae8,PennController,4,0,rating_task,NULL,PennController,16,_Trial_,End,1776949346882,NULL
1776949466,d4cee26f49ed4e79de6f255c85c1eae8,PennController,14,0,rating_task,NULL,PennController,26,_Trial_,Start,1776949346883,NULL
1776949466,d4cee26f49ed4e79de6f255c85c1eae8,PennController,14,0,rating_task,NULL,PennController,26,_Header_,Start,1776949346883,NULL
1776949466,d4cee26f49ed4e79de6f255c85c1eae8,PennController,14,0,rating_task,NULL,PennController,26,_Header_,End,1776949347133,NULL
1776949466,d4cee26f49ed4e79de6f255c85c1eae8,PennController,14,0,rating_task,NULL,Scale,likert_valence,Choice,1,1776949348798,NULL
1776949466,d4cee26f49ed4e79de6f255c85c1eae8,PennController,14,0,rating_task,NULL,Scale,likert_arousal,Choice,1,1776949349529,NULL
1776949466,d4cee26f49ed4e79de6f255c85c1eae8,PennController,14,0,rating_task,NULL,Var,Word,Final,kind,1776949350942,Value at the end of the trial
1776949466,d4cee26f49ed4e79de6f255c85c1eae8,PennController,14,0,rating_task,NULL,Var,notFit,Final,yes,1776949350942,Value at the end of the trial
1776949466,d4cee26f49ed4e79de6f255c85c1eae8,PennController,14,0,rating_task,NULL,PennController,26,_Trial_,End,1776949350944,NULL
1776949466,d4cee26f49ed4e79de6f255c85c1eae8,PennController,7,0,rating_task,NULL,PennController,19,_Trial_,Start,1776949350945,NULL
1776949466,d4cee26f49ed4e79de6f255c85c1eae8,PennController,7,0,rating_task,NULL,PennController,19,_Header_,Start,1776949350945,NULL
1776949466,d4cee26f49ed4e79de6f255c85c1eae8,PennController,7,0,rating_task,NULL,PennController,19,_Header_,End,1776949351197,NULL
1776949466,d4cee26f49ed4e79de6f255c85c1eae8,PennController,7,0,rating_task,NULL,Scale,likert_valence,Choice,1,1776949352467,NULL
1776949466,d4cee26f49ed4e79de6f255c85c1eae8,PennController,7,0,rating_task,NULL,Scale,likert_arousal,Choice,1,1776949353164,NULL
1776949466,d4cee26f49ed4e79de6f255c85c1eae8,PennController,7,0,rating_task,NULL,Var,Word,Final,rude,1776949353997,Value at the end of the trial
1776949466,d4cee26f49ed4e79de6f255c85c1eae8,PennController,7,0,rating_task,NULL,Var,notFit,Final,no,1776949353997,Value at the end of the trial
1776949466,d4cee26f49ed4e79de6f255c85c1eae8,PennController,7,0,rating_task,NULL,PennController,19,_Trial_,End,1776949353999,NULL
1776949466,d4cee26f49ed4e79de6f255c85c1eae8,PennController,9,0,rating_task,NULL,PennController,21,_Trial_,Start,1776949354000,NULL
1776949466,d4cee26f49ed4e79de6f255c85c1eae8,PennController,9,0,rating_task,NULL,PennController,21,_Header_,Start,1776949354000,NULL
1776949466,d4cee26f49ed4e79de6f255c85c1eae8,PennController,9,0,rating_task,NULL,PennController,21,_Header_,End,1776949354253,NULL
1776949466,d4cee26f49ed4e79de6f255c85c1eae8,PennController,9,0,rating_task,NULL,Scale,likert_valence,Choice,1,1776949355181,NULL
1776949466,d4cee26f49ed4e79de6f255c85c1eae8,PennController,9,0,rating_task,NULL,Scale,likert_arousal,Choice,1,1776949355971,NULL
1776949466,d4cee26f49ed4e79de6f255c85c1eae8,PennController,9,0,rating_task,NULL,Var,Word,Final,lazy,1776949356627,Value at the end of the trial
1776949466,d4cee26f49ed4e79de6f255c85c1eae8,PennController,9,0,rating_task,NULL,Var,notFit,Final,no,1776949356627,Value at the end of the trial
1776949466,d4cee26f49ed4e79de6f255c85c1eae8,PennController,9,0,rating_task,NULL,PennController,21,_Trial_,End,1776949356628,NULL
1776949466,d4cee26f49ed4e79de6f255c85c1eae8,PennController,6,0,rating_task,NULL,PennController,18,_Trial_,Start,1776949356629,NULL
1776949466,d4cee26f49ed4e79de6f255c85c1eae8,PennController,6,0,rating_task,NULL,PennController,18,_Header_,Start,1776949356629,NULL
1776949466,d4cee26f49ed4e79de6f255c85c1eae8,PennController,6,0,rating_task,NULL,PennController,18,_Header_,End,1776949356882,NULL
1776949466,d4cee26f49ed4e79de6f255c85c1eae8,PennController,6,0,rating_task,NULL,Scale,likert_valence,Choice,1,1776949357515,NULL
1776949466,d4cee26f49ed4e79de6f255c85c1eae8,PennController,6,0,rating_task,NULL,Scale,likert_arousal,Choice,1,1776949358992,NULL
1776949466,d4cee26f49ed4e79de6f255c85c1eae8,PennController,6,0,rating_task,NULL,Var,Word,Final,obsecene,1776949379806,Value at the end of the trial
1776949466,d4cee26f49ed4e79de6f255c85c1eae8,PennController,6,0,rating_task,NULL,Var,notFit,Final,yes,1776949379806,Value at the end of the trial
1776949466,d4cee26f49ed4e79de6f255c85c1eae8,PennController,6,0,rating_task,NULL,PennController,18,_Trial_,End,1776949379807,NULL
1776949466,d4cee26f49ed4e79de6f255c85c1eae8,PennController,3,0,rating_task,NULL,PennController,15,_Trial_,Start,1776949379812,NULL
1776949466,d4cee26f49ed4e79de6f255c85c1eae8,PennController,3,0,rating_task,NULL,PennController,15,_Header_,Start,1776949379812,NULL
1776949466,d4cee26f49ed4e79de6f255c85c1eae8,PennController,3,0,rating_task,NULL,PennController,15,_Header_,End,1776949380065,NULL
1776949466,d4cee26f49ed4e79de6f255c85c1eae8,PennController,3,0,rating_task,NULL,Scale,likert_valence,Choice,1,1776949381045,NULL
1776949466,d4cee26f49ed4e79de6f255c85c1eae8,PennController,3,0,rating_task,NULL,Scale,likert_arousal,Choice,1,1776949381816,NULL
1776949466,d4cee26f49ed4e79de6f255c85c1eae8,PennController,3,0,rating_task,NULL,Var,Word,Final,asshole,1776949382524,Value at the end of the trial
1776949466,d4cee26f49ed4e79de6f255c85c1eae8,PennController,3,0,rating_task,NULL,Var,notFit,Final,no,1776949382524,Value at the end of the trial
1776949466,d4cee26f49ed4e79de6f255c85c1eae8,PennController,3,0,rating_task,NULL,PennController,15,_Trial_,End,1776949382525,NULL
1776949466,d4cee26f49ed4e79de6f255c85c1eae8,PennController,16,0,rating_task,NULL,PennController,28,_Trial_,Start,1776949382528,NULL
1776949466,d4cee26f49ed4e79de6f255c85c1eae8,PennController,16,0,rating_task,NULL,PennController,28,_Header_,Start,1776949382528,NULL
1776949466,d4cee26f49ed4e79de6f255c85c1eae8,PennController,16,0,rating_task,NULL,PennController,28,_Header_,End,1776949382781,NULL
1776949466,d4cee26f49ed4e79de6f255c85c1eae8,PennController,16,0,rating_task,NULL,Scale,likert_valence,Choice,1,1776949383375,NULL
1776949466,d4cee26f49ed4e79de6f255c85c1eae8,PennController,16,0,rating_task,NULL,Scale,likert_arousal,Choice,1,1776949384100,NULL
1776949466,d4cee26f49ed4e79de6f255c85c1eae8,PennController,16,0,rating_task,NULL,Var,Word,Final,wise,1776949384810,Value at the end of the trial
1776949466,d4cee26f49ed4e79de6f255c85c1eae8,PennController,16,0,rating_task,NULL,Var,notFit,Final,no,1776949384811,Value at the end of the trial
1776949466,d4cee26f49ed4e79de6f255c85c1eae8,PennController,16,0,rating_task,NULL,PennController,28,_Trial_,End,1776949384812,NULL
1776949466,d4cee26f49ed4e79de6f255c85c1eae8,PennController,17,0,rating_task,NULL,PennController,29,_Trial_,Start,1776949384816,NULL
1776949466,d4cee26f49ed4e79de6f255c85c1eae8,PennController,17,0,rating_task,NULL,PennController,29,_Header_,Start,1776949384816,NULL
1776949466,d4cee26f49ed4e79de6f255c85c1eae8,PennController,17,0,rating_task,NULL,PennController,29,_Header_,End,1776949385067,NULL
1776949466,d4cee26f49ed4e79de6f255c85c1eae8,PennController,17,0,rating_task,NULL,Scale,likert_valence,Choice,1,1776949385621,NULL
1776949466,d4cee26f49ed4e79de6f255c85c1eae8,PennController,17,0,rating_task,NULL,Scale,likert_arousal,Choice,1,1776949386337,NULL
1776949466,d4cee26f49ed4e79de6f255c85c1eae8,PennController,17,0,rating_task,NULL,Var,Word,Final,careful,1776949387040,Value at the end of the trial
1776949466,d4cee26f49ed4e79de6f255c85c1eae8,PennController,17,0,rating_task,NULL,Var,notFit,Final,no,1776949387040,Value at the end of the trial
1776949466,d4cee26f49ed4e79de6f255c85c1eae8,PennController,17,0,rating_task,NULL,PennController,29,_Trial_,End,1776949387041,NULL
1776949466,d4cee26f49ed4e79de6f255c85c1eae8,PennController,13,0,rating_task,NULL,PennController,25,_Trial_,Start,1776949387043,NULL
1776949466,d4cee26f49ed4e79de6f255c85c1eae8,PennController,13,0,rating_task,NULL,PennController,25,_Header_,Start,1776949387043,NULL
1776949466,d4cee26f49ed4e79de6f255c85c1eae8,PennController,13,0,rating_task,NULL,PennController,25,_Header_,End,1776949387297,NULL
1776949466,d4cee26f49ed4e79de6f255c85c1eae8,PennController,13,0,rating_task,NULL,Scale,likert_valence,Choice,1,1776949389091,NULL
1776949466,d4cee26f49ed4e79de6f255c85c1eae8,PennController,13,0,rating_task,NULL,Scale,likert_arousal,Choice,1,1776949389955,NULL
1776949466,d4cee26f49ed4e79de6f255c85c1eae8,PennController,13,0,rating_task,NULL,Var,Word,Final,disloyal,1776949390706,Value at the end of the trial
1776949466,d4cee26f49ed4e79de6f255c85c1eae8,PennController,13,0,rating_task,NULL,Var,notFit,Final,no,1776949390706,Value at the end of the trial
1776949466,d4cee26f49ed4e79de6f255c85c1eae8,PennController,13,0,rating_task,NULL,PennController,25,_Trial_,End,1776949390707,NULL
1776949466,d4cee26f49ed4e79de6f255c85c1eae8,PennController,22,0,rating_task,NULL,PennController,34,_Trial_,Start,1776949390708,NULL
1776949466,d4cee26f49ed4e79de6f255c85c1eae8,PennController,22,0,rating_task,NULL,PennController,34,_Header_,Start,1776949390708,NULL
1776949466,d4cee26f49ed4e79de6f255c85c1eae8,PennController,22,0,rating_task,NULL,PennController,34,_Header_,End,1776949390959,NULL
1776949466,d4cee26f49ed4e79de6f255c85c1eae8,PennController,22,0,rating_task,NULL,Scale,likert_valence,Choice,1,1776949396359,NULL
1776949466,d4cee26f49ed4e79de6f255c85c1eae8,PennController,22,0,rating_task,NULL,Scale,likert_arousal,Choice,1,1776949397095,NULL
1776949466,d4cee26f49ed4e79de6f255c85c1eae8,PennController,22,0,rating_task,NULL,Var,Word,Final,discreet,1776949398308,Value at the end of the trial
1776949466,d4cee26f49ed4e79de6f255c85c1eae8,PennController,22,0,rating_task,NULL,Var,notFit,Final,no,1776949398308,Value at the end of the trial
1776949466,d4cee26f49ed4e79de6f255c85c1eae8,PennController,22,0,rating_task,NULL,PennController,34,_Trial_,End,1776949398309,NULL
1776949466,d4cee26f49ed4e79de6f255c85c1eae8,PennController,8,0,rating_task,NULL,PennController,20,_Trial_,Start,1776949398310,NULL
1776949466,d4cee26f49ed4e79de6f255c85c1eae8,PennController,8,0,rating_task,NULL,PennController,20,_Header_,Start,1776949398310,NULL
1776949466,d4cee26f49ed4e79de6f255c85c1eae8,PennController,8,0,rating_task,NULL,PennController,20,_Header_,End,1776949398562,NULL
1776949466,d4cee26f49ed4e79de6f255c85c1eae8,PennController,8,0,rating_task,NULL,Scale,likert_valence,Choice,1,1776949399154,NULL
1776949466,d4cee26f49ed4e79de6f255c85c1eae8,PennController,8,0,rating_task,NULL,Scale,likert_arousal,Choice,1,1776949399841,NULL
1776949466,d4cee26f49ed4e79de6f255c85c1eae8,PennController,8,0,rating_task,NULL,Var,Word,Final,unrealiable,1776949400540,Value at the end of the trial
1776949466,d4cee26f49ed4e79de6f255c85c1eae8,PennController,8,0,rating_task,NULL,Var,notFit,Final,no,1776949400540,Value at the end of the trial
1776949466,d4cee26f49ed4e79de6f255c85c1eae8,PennController,8,0,rating_task,NULL,PennController,20,_Trial_,End,1776949400541,NULL
1776949466,d4cee26f49ed4e79de6f255c85c1eae8,PennController,18,0,rating_task,NULL,PennController,30,_Trial_,Start,1776949400542,NULL
1776949466,d4cee26f49ed4e79de6f255c85c1eae8,PennController,18,0,rating_task,NULL,PennController,30,_Header_,Start,1776949400542,NULL
1776949466,d4cee26f49ed4e79de6f255c85c1eae8,PennController,18,0,rating_task,NULL,PennController,30,_Header_,End,1776949400792,NULL
1776949466,d4cee26f49ed4e79de6f255c85c1eae8,PennController,18,0,rating_task,NULL,Scale,likert_valence,Choice,1,1776949401240,NULL
1776949466,d4cee26f49ed4e79de6f255c85c1eae8,PennController,18,0,rating_task,NULL,Scale,likert_arousal,Choice,1,1776949402024,NULL
1776949466,d4cee26f49ed4e79de6f255c85c1eae8,PennController,18,0,rating_task,NULL,Var,Word,Final,reliable,1776949402725,Value at the end of the trial
1776949466,d4cee26f49ed4e79de6f255c85c1eae8,PennController,18,0,rating_task,NULL,Var,notFit,Final,no,1776949402725,Value at the end of the trial
1776949466,d4cee26f49ed4e79de6f255c85c1eae8,PennController,18,0,rating_task,NULL,PennController,30,_Trial_,End,1776949402726,NULL
1776949466,d4cee26f49ed4e79de6f255c85c1eae8,PennController,11,0,rating_task,NULL,PennController,23,_Trial_,Start,1776949402728,NULL
1776949466,d4cee26f49ed4e79de6f255c85c1eae8,PennController,11,0,rating_task,NULL,PennController,23,_Header_,Start,1776949402728,NULL
1776949466,d4cee26f49ed4e79de6f255c85c1eae8,PennController,11,0,rating_task,NULL,PennController,23,_Header_,End,1776949402983,NULL
1776949466,d4cee26f49ed4e79de6f255c85c1eae8,PennController,11,0,rating_task,NULL,Scale,likert_valence,Choice,1,1776949403522,NULL
1776949466,d4cee26f49ed4e79de6f255c85c1eae8,PennController,11,0,rating_task,NULL,Scale,likert_arousal,Choice,1,1776949404222,NULL
1776949466,d4cee26f49ed4e79de6f255c85c1eae8,PennController,11,0,rating_task,NULL,Var,Word,Final,indiscreet,1776949404911,Value at the end of the trial
1776949466,d4cee26f49ed4e79de6f255c85c1eae8,PennController,11,0,rating_task,NULL,Var,notFit,Final,no,1776949404911,Value at the end of the trial
1776949466,d4cee26f49ed4e79de6f255c85c1eae8,PennController,11,0,rating_task,NULL,PennController,23,_Trial_,End,1776949404913,NULL
1776949466,d4cee26f49ed4e79de6f255c85c1eae8,PennController,15,0,rating_task,NULL,PennController,27,_Trial_,Start,1776949404914,NULL
1776949466,d4cee26f49ed4e79de6f255c85c1eae8,PennController,15,0,rating_task,NULL,PennController,27,_Header_,Start,1776949404914,NULL
1776949466,d4cee26f49ed4e79de6f255c85c1eae8,PennController,15,0,rating_task,NULL,PennController,27,_Header_,End,1776949405168,NULL
1776949466,d4cee26f49ed4e79de6f255c85c1eae8,PennController,15,0,rating_task,NULL,Scale,likert_valence,Choice,1,1776949405654,NULL
1776949466,d4cee26f49ed4e79de6f255c85c1eae8,PennController,15,0,rating_task,NULL,Scale,likert_arousal,Choice,1,1776949406435,NULL
1776949466,d4cee26f49ed4e79de6f255c85c1eae8,PennController,15,0,rating_task,NULL,Var,Word,Final,graceful,1776949407143,Value at the end of the trial
1776949466,d4cee26f49ed4e79de6f255c85c1eae8,PennController,15,0,rating_task,NULL,Var,notFit,Final,no,1776949407143,Value at the end of the trial
1776949466,d4cee26f49ed4e79de6f255c85c1eae8,PennController,15,0,rating_task,NULL,PennController,27,_Trial_,End,1776949407143,NULL
1776949466,d4cee26f49ed4e79de6f255c85c1eae8,PennController,21,0,rating_task,NULL,PennController,33,_Trial_,Start,1776949407144,NULL
1776949466,d4cee26f49ed4e79de6f255c85c1eae8,PennController,21,0,rating_task,NULL,PennController,33,_Header_,Start,1776949407144,NULL
1776949466,d4cee26f49ed4e79de6f255c85c1eae8,PennController,21,0,rating_task,NULL,PennController,33,_Header_,End,1776949407399,NULL
1776949466,d4cee26f49ed4e79de6f255c85c1eae8,PennController,21,0,rating_task,NULL,Scale,likert_valence,Choice,1,1776949407968,NULL
1776949466,d4cee26f49ed4e79de6f255c85c1eae8,PennController,21,0,rating_task,NULL,Scale,likert_arousal,Choice,1,1776949408731,NULL
1776949466,d4cee26f49ed4e79de6f255c85c1eae8,PennController,21,0,rating_task,NULL,Var,Word,Final,cautious,1776949409377,Value at the end of the trial
1776949466,d4cee26f49ed4e79de6f255c85c1eae8,PennController,21,0,rating_task,NULL,Var,notFit,Final,no,1776949409377,Value at the end of the trial
1776949466,d4cee26f49ed4e79de6f255c85c1eae8,PennController,21,0,rating_task,NULL,PennController,33,_Trial_,End,1776949409377,NULL
1776949466,d4cee26f49ed4e79de6f255c85c1eae8,PennController,10,0,rating_task,NULL,PennController,22,_Trial_,Start,1776949409378,NULL
1776949466,d4cee26f49ed4e79de6f255c85c1eae8,PennController,10,0,rating_task,NULL,PennController,22,_Header_,Start,1776949409378,NULL
1776949466,d4cee26f49ed4e79de6f255c85c1eae8,PennController,10,0,rating_task,NULL,PennController,22,_Header_,End,1776949409631,NULL
1776949466,d4cee26f49ed4e79de6f255c85c1eae8,PennController,10,0,rating_task,NULL,Scale,likert_valence,Choice,1,1776949410896,NULL
1776949466,d4cee26f49ed4e79de6f255c85c1eae8,PennController,10,0,rating_task,NULL,Scale,likert_arousal,Choice,1,1776949411622,NULL
1776949466,d4cee26f49ed4e79de6f255c85c1eae8,PennController,10,0,rating_task,NULL,Var,Word,Final,mean,1776949412353,Value at the end of the trial
1776949466,d4cee26f49ed4e79de6f255c85c1eae8,PennController,10,0,rating_task,NULL,Var,notFit,Final,no,1776949412353,Value at the end of the trial
1776949466,d4cee26f49ed4e79de6f255c85c1eae8,PennController,10,0,rating_task,NULL,PennController,22,_Trial_,End,1776949412353,NULL
1776949466,d4cee26f49ed4e79de6f255c85c1eae8,PennController,19,0,rating_task,NULL,PennController,31,_Trial_,Start,1776949412353,NULL
1776949466,d4cee26f49ed4e79de6f255c85c1eae8,PennController,19,0,rating_task,NULL,PennController,31,_Header_,Start,1776949412353,NULL
1776949466,d4cee26f49ed4e79de6f255c85c1eae8,PennController,19,0,rating_task,NULL,PennController,31,_Header_,End,1776949412606,NULL
1776949466,d4cee26f49ed4e79de6f255c85c1eae8,PennController,19,0,rating_task,NULL,Scale,likert_valence,Choice,1,1776949413202,NULL
1776949466,d4cee26f49ed4e79de6f255c85c1eae8,PennController,19,0,rating_task,NULL,Scale,likert_arousal,Choice,1,1776949413968,NULL
1776949466,d4cee26f49ed4e79de6f255c85c1eae8,PennController,19,0,rating_task,NULL,Var,Word,Final,loyal,1776949414647,Value at the end of the trial
1776949466,d4cee26f49ed4e79de6f255c85c1eae8,PennController,19,0,rating_task,NULL,Var,notFit,Final,no,1776949414647,Value at the end of the trial
1776949466,d4cee26f49ed4e79de6f255c85c1eae8,PennController,19,0,rating_task,NULL,PennController,31,_Trial_,End,1776949414649,NULL
1776949466,d4cee26f49ed4e79de6f255c85c1eae8,PennController,12,0,rating_task,NULL,PennController,24,_Trial_,Start,1776949414650,NULL
1776949466,d4cee26f49ed4e79de6f255c85c1eae8,PennController,12,0,rating_task,NULL,PennController,24,_Header_,Start,1776949414650,NULL
1776949466,d4cee26f49ed4e79de6f255c85c1eae8,PennController,12,0,rating_task,NULL,PennController,24,_Header_,End,1776949414904,NULL
1776949466,d4cee26f49ed4e79de6f255c85c1eae8,PennController,12,0,rating_task,NULL,Scale,likert_valence,Choice,1,1776949415411,NULL
1776949466,d4cee26f49ed4e79de6f255c85c1eae8,PennController,12,0,rating_task,NULL,Scale,likert_arousal,Choice,1,1776949416087,NULL
1776949466,d4cee26f49ed4e79de6f255c85c1eae8,PennController,12,0,rating_task,NULL,Var,Word,Final,cruel,1776949416891,Value at the end of the trial
1776949466,d4cee26f49ed4e79de6f255c85c1eae8,PennController,12,0,rating_task,NULL,Var,notFit,Final,no,1776949416891,Value at the end of the trial
1776949466,d4cee26f49ed4e79de6f255c85c1eae8,PennController,12,0,rating_task,NULL,PennController,24,_Trial_,End,1776949416893,NULL
1776949466,d4cee26f49ed4e79de6f255c85c1eae8,PennController,20,0,rating_task,NULL,PennController,32,_Trial_,Start,1776949416896,NULL
1776949466,d4cee26f49ed4e79de6f255c85c1eae8,PennController,20,0,rating_task,NULL,PennController,32,_Header_,Start,1776949416896,NULL
1776949466,d4cee26f49ed4e79de6f255c85c1eae8,PennController,20,0,rating_task,NULL,PennController,32,_Header_,End,1776949417148,NULL
1776949466,d4cee26f49ed4e79de6f255c85c1eae8,PennController,20,0,rating_task,NULL,Scale,likert_valence,Choice,1,1776949417711,NULL
1776949466,d4cee26f49ed4e79de6f255c85c1eae8,PennController,20,0,rating_task,NULL,Scale,likert_arousal,Choice,1,1776949418397,NULL
1776949466,d4cee26f49ed4e79de6f255c85c1eae8,PennController,20,0,rating_task,NULL,Var,Word,Final,patient,1776949419148,Value at the end of the trial
1776949466,d4cee26f49ed4e79de6f255c85c1eae8,PennController,20,0,rating_task,NULL,Var,notFit,Final,no,1776949419148,Value at the end of the trial
1776949466,d4cee26f49ed4e79de6f255c85c1eae8,PennController,20,0,rating_task,NULL,PennController,32,_Trial_,End,1776949419150,NULL
1776949466,d4cee26f49ed4e79de6f255c85c1eae8,PennController,5,0,rating_task,NULL,PennController,17,_Trial_,Start,1776949419152,NULL
1776949466,d4cee26f49ed4e79de6f255c85c1eae8,PennController,5,0,rating_task,NULL,PennController,17,_Header_,Start,1776949419152,NULL
1776949466,d4cee26f49ed4e79de6f255c85c1eae8,PennController,5,0,rating_task,NULL,PennController,17,_Header_,End,1776949419405,NULL
1776949466,d4cee26f49ed4e79de6f255c85c1eae8,PennController,5,0,rating_task,NULL,Scale,likert_valence,Choice,1,1776949419899,NULL
1776949466,d4cee26f49ed4e79de6f255c85c1eae8,PennController,5,0,rating_task,NULL,Scale,likert_arousal,Choice,1,1776949420661,NULL
1776949466,d4cee26f49ed4e79de6f255c85c1eae8,PennController,5,0,rating_task,NULL,Var,Word,Final,liar,1776949421597,Value at the end of the trial
1776949466,d4cee26f49ed4e79de6f255c85c1eae8,PennController,5,0,rating_task,NULL,Var,notFit,Final,no,1776949421597,Value at the end of the trial
1776949466,d4cee26f49ed4e79de6f255c85c1eae8,PennController,5,0,rating_task,NULL,PennController,17,_Trial_,End,1776949421599,NULL
1776949466,d4cee26f49ed4e79de6f255c85c1eae8,PennController,94,0,intro_leapq,NULL,PennController,13,_Trial_,Start,1776949421601,NULL
1776949466,d4cee26f49ed4e79de6f255c85c1eae8,PennController,94,0,intro_leapq,NULL,PennController,13,_Header_,Start,1776949421601,NULL
1776949466,d4cee26f49ed4e79de6f255c85c1eae8,PennController,94,0,intro_leapq,NULL,PennController,13,_Header_,End,1776949421851,NULL
1776949466,d4cee26f49ed4e79de6f255c85c1eae8,PennController,94,0,intro_leapq,NULL,PennController,13,_Trial_,End,1776949422792,NULL
1776949466,d4cee26f49ed4e79de6f255c85c1eae8,PennController,95,0,leap-q,NULL,PennController,14,_Trial_,Start,1776949422797,NULL
1776949466,d4cee26f49ed4e79de6f255c85c1eae8,PennController,95,0,leap-q,NULL,PennController,14,_Header_,Start,1776949422797,NULL
1776949466,d4cee26f49ed4e79de6f255c85c1eae8,PennController,95,0,leap-q,NULL,PennController,14,_Header_,End,1776949423051,NULL
1776949466,d4cee26f49ed4e79de6f255c85c1eae8,PennController,95,0,leap-q,NULL,Html,bg_form,dominance_1,1,1776949462384,text input
1776949466,d4cee26f49ed4e79de6f255c85c1eae8,PennController,95,0,leap-q,NULL,Html,bg_form,dominance_2,,1776949462384,text input
1776949466,d4cee26f49ed4e79de6f255c85c1eae8,PennController,95,0,leap-q,NULL,Html,bg_form,dominance_3,,1776949462384,text input
1776949466,d4cee26f49ed4e79de6f255c85c1eae8,PennController,95,0,leap-q,NULL,Html,bg_form,dominance_4,,1776949462384,text input
1776949466,d4cee26f49ed4e79de6f255c85c1eae8,PennController,95,0,leap-q,NULL,Html,bg_form,dominance_5,,1776949462384,text input
1776949466,d4cee26f49ed4e79de6f255c85c1eae8,PennController,95,0,leap-q,NULL,Html,bg_form,acquisition_1,1,1776949462384,text input
1776949466,d4cee26f49ed4e79de6f255c85c1eae8,PennController,95,0,leap-q,NULL,Html,bg_form,acquisition_2,,1776949462384,text input
1776949466,d4cee26f49ed4e79de6f255c85c1eae8,PennController,95,0,leap-q,NULL,Html,bg_form,acquisition_3,,1776949462384,text input
1776949466,d4cee26f49ed4e79de6f255c85c1eae8,PennController,95,0,leap-q,NULL,Html,bg_form,acquisition_4,,1776949462384,text input
1776949466,d4cee26f49ed4e79de6f255c85c1eae8,PennController,95,0,leap-q,NULL,Html,bg_form,acquisition_5,,1776949462384,text input
1776949466,d4cee26f49ed4e79de6f255c85c1eae8,PennController,95,0,leap-q,NULL,Html,bg_form,exp_lang_1,1,1776949462384,text input
1776949466,d4cee26f49ed4e79de6f255c85c1eae8,PennController,95,0,leap-q,NULL,Html,bg_form,exp_lang_2,,1776949462384,text input
1776949466,d4cee26f49ed4e79de6f255c85c1eae8,PennController,95,0,leap-q,NULL,Html,bg_form,exp_lang_3,,1776949462384,text input
1776949466,d4cee26f49ed4e79de6f255c85c1eae8,PennController,95,0,leap-q,NULL,Html,bg_form,exp_lang_4,,1776949462384,text input
1776949466,d4cee26f49ed4e79de6f255c85c1eae8,PennController,95,0,leap-q,NULL,Html,bg_form,exp_lang_5,,1776949462384,text input
1776949466,d4cee26f49ed4e79de6f255c85c1eae8,PennController,95,0,leap-q,NULL,Html,bg_form,read_lang_1,1,1776949462384,text input
1776949466,d4cee26f49ed4e79de6f255c85c1eae8,PennController,95,0,leap-q,NULL,Html,bg_form,read_lang_2,,1776949462384,text input
1776949466,d4cee26f49ed4e79de6f255c85c1eae8,PennController,95,0,leap-q,NULL,Html,bg_form,read_lang_3,,1776949462384,text input
1776949466,d4cee26f49ed4e79de6f255c85c1eae8,PennController,95,0,leap-q,NULL,Html,bg_form,read_lang_4,,1776949462384,text input
1776949466,d4cee26f49ed4e79de6f255c85c1eae8,PennController,95,0,leap-q,NULL,Html,bg_form,read_lang_5,,1776949462384,text input
1776949466,d4cee26f49ed4e79de6f255c85c1eae8,PennController,95,0,leap-q,NULL,Html,bg_form,speak_lang_1,1,1776949462384,text input
1776949466,d4cee26f49ed4e79de6f255c85c1eae8,PennController,95,0,leap-q,NULL,Html,bg_form,speak_lang_2,,1776949462384,text input
1776949466,d4cee26f49ed4e79de6f255c85c1eae8,PennController,95,0,leap-q,NULL,Html,bg_form,speak_lang_3,,1776949462384,text input
1776949466,d4cee26f49ed4e79de6f255c85c1eae8,PennController,95,0,leap-q,NULL,Html,bg_form,speak_lang_4,,1776949462384,text input
1776949466,d4cee26f49ed4e79de6f255c85c1eae8,PennController,95,0,leap-q,NULL,Html,bg_form,speak_lang_5,,1776949462384,text input
1776949466,d4cee26f49ed4e79de6f255c85c1eae8,PennController,95,0,leap-q,NULL,Html,bg_form,culture_1,1,1776949462384,text input
1776949466,d4cee26f49ed4e79de6f255c85c1eae8,PennController,95,0,leap-q,NULL,Html,bg_form,culture_2,,1776949462384,text input
1776949466,d4cee26f49ed4e79de6f255c85c1eae8,PennController,95,0,leap-q,NULL,Html,bg_form,culture_3,,1776949462384,text input
1776949466,d4cee26f49ed4e79de6f255c85c1eae8,PennController,95,0,leap-q,NULL,Html,bg_form,culture_4,,1776949462384,text input
1776949466,d4cee26f49ed4e79de6f255c85c1eae8,PennController,95,0,leap-q,NULL,Html,bg_form,culture_5,,1776949462384,text input
1776949466,d4cee26f49ed4e79de6f255c85c1eae8,PennController,95,0,leap-q,NULL,Html,bg_form,edu_other_text,,1776949462384,text input
1776949466,d4cee26f49ed4e79de6f255c85c1eae8,PennController,95,0,leap-q,NULL,Html,bg_form,current_residence_country,11,1776949462384,text input
1776949466,d4cee26f49ed4e79de6f255c85c1eae8,PennController,95,0,leap-q,NULL,Html,bg_form,immigration_country_1,1,1776949462384,text input
1776949466,d4cee26f49ed4e79de6f255c85c1eae8,PennController,95,0,leap-q,NULL,Html,bg_form,immigration_country_2,,1776949462384,text input
1776949466,d4cee26f49ed4e79de6f255c85c1eae8,PennController,95,0,leap-q,NULL,Html,bg_form,immigration_country_3,,1776949462384,text input
1776949466,d4cee26f49ed4e79de6f255c85c1eae8,PennController,95,0,leap-q,NULL,Html,bg_form,disability_explanation,,1776949462384,text input
1776949466,d4cee26f49ed4e79de6f255c85c1eae8,PennController,95,0,leap-q,NULL,Html,bg_form,disability_options,unchecked,1776949462384,checkbox
1776949466,d4cee26f49ed4e79de6f255c85c1eae8,PennController,95,0,leap-q,NULL,Html,bg_form,disability_options,unchecked,1776949462384,checkbox
1776949466,d4cee26f49ed4e79de6f255c85c1eae8,PennController,95,0,leap-q,NULL,Html,bg_form,disability_options,unchecked,1776949462384,checkbox
1776949466,d4cee26f49ed4e79de6f255c85c1eae8,PennController,95,0,leap-q,NULL,Html,bg_form,disability_options,unchecked,1776949462384,checkbox
1776949466,d4cee26f49ed4e79de6f255c85c1eae8,PennController,95,0,leap-q,NULL,Html,bg_form,disability_options,checked,1776949462384,checkbox
1776949466,d4cee26f49ed4e79de6f255c85c1eae8,PennController,95,0,leap-q,NULL,Html,bg_form,education_level,Less than High School,1776949462384,radio button
1776949466,d4cee26f49ed4e79de6f255c85c1eae8,PennController,95,0,leap-q,NULL,PennController,14,_Trial_,End,1776949462385,NULL
1776949466,d4cee26f49ed4e79de6f255c85c1eae8,PennController,84,0,demo,NULL,PennController,3,_Trial_,Start,1776949462390,NULL
1776949466,d4cee26f49ed4e79de6f255c85c1eae8,PennController,84,0,demo,NULL,PennController,3,_Header_,Start,1776949462390,NULL
1776949466,d4cee26f49ed4e79de6f255c85c1eae8,PennController,84,0,demo,NULL,PennController,3,_Header_,End,1776949462642,NULL
1776949466,d4cee26f49ed4e79de6f255c85c1eae8,PennController,84,0,demo,NULL,Html,bg_form,gender,man,1776949465046,radio button
1776949466,d4cee26f49ed4e79de6f255c85c1eae8,PennController,84,0,demo,NULL,PennController,3,_Trial_,End,1776949465047,NULL
#
# Results on Thu, 23 Apr 2026 13:05:22 GMT
# USER AGENT: Mozilla/5.0 (Macintosh; Intel Mac OS X 10.15; rv:150.0) Gecko/20100101 Firefox/150.0
# Design number was non-random = 0
#
# Columns below this comment are as follows:
# 1. Results reception time.
# 2. MD5 hash of participant's IP address.
# 3. Controller name.
# 4. Order number of item.
# 5. Inner element number.
# 6. Label.
# 7. Latin Square Group.
# 8. PennElementType.
# 9. PennElementName.
# 10. Parameter.
# 11. Value.
# 12. EventTime.
# 13. Comments.
1776949522,a70b234b31b29899d4156d1030ac438c,PennController,0,0,welcome,NULL,PennController,0,_Trial_,Start,1776949200079,NULL
1776949522,a70b234b31b29899d4156d1030ac438c,PennController,0,0,welcome,NULL,PennController,0,_Header_,Start,1776949200079,NULL
1776949522,a70b234b31b29899d4156d1030ac438c,PennController,0,0,welcome,NULL,PennController,0,_Header_,End,1776949200334,NULL
1776949522,a70b234b31b29899d4156d1030ac438c,PennController,0,0,welcome,NULL,PennController,0,_Trial_,End,1776949217363,NULL
1776949522,a70b234b31b29899d4156d1030ac438c,PennController,83,0,consent,NULL,PennController,2,_Trial_,Start,1776949217366,NULL
1776949522,a70b234b31b29899d4156d1030ac438c,PennController,83,0,consent,NULL,PennController,2,_Header_,Start,1776949217366,NULL
1776949522,a70b234b31b29899d4156d1030ac438c,PennController,83,0,consent,NULL,PennController,2,_Header_,End,1776949217622,NULL
1776949522,a70b234b31b29899d4156d1030ac438c,PennController,83,0,consent,NULL,PennController,2,_Trial_,End,1776949223112,NULL
1776949522,a70b234b31b29899d4156d1030ac438c,PennController,88,0,instructions1,NULL,PennController,7,_Trial_,Start,1776949223114,NULL
1776949522,a70b234b31b29899d4156d1030ac438c,PennController,88,0,instructions1,NULL,PennController,7,_Header_,Start,1776949223114,NULL
1776949522,a70b234b31b29899d4156d1030ac438c,PennController,88,0,instructions1,NULL,PennController,7,_Header_,End,1776949223365,NULL
1776949522,a70b234b31b29899d4156d1030ac438c,PennController,88,0,instructions1,NULL,PennController,7,_Trial_,End,1776949225387,NULL
1776949522,a70b234b31b29899d4156d1030ac438c,PennController,89,0,instructions2,NULL,PennController,8,_Trial_,Start,1776949225388,NULL
1776949522,a70b234b31b29899d4156d1030ac438c,PennController,89,0,instructions2,NULL,PennController,8,_Header_,Start,1776949225388,NULL
1776949522,a70b234b31b29899d4156d1030ac438c,PennController,89,0,instructions2,NULL,PennController,8,_Header_,End,1776949225643,NULL
1776949522,a70b234b31b29899d4156d1030ac438c,PennController,89,0,instructions2,NULL,PennController,8,_Trial_,End,1776949226775,NULL
1776949522,a70b234b31b29899d4156d1030ac438c,PennController,85,0,practice1,NULL,PennController,4,_Trial_,Start,1776949226777,NULL
1776949522,a70b234b31b29899d4156d1030ac438c,PennController,85,0,practice1,NULL,PennController,4,_Header_,Start,1776949226777,NULL
1776949522,a70b234b31b29899d4156d1030ac438c,PennController,85,0,practice1,NULL,PennController,4,_Header_,End,1776949227029,NULL
1776949522,a70b234b31b29899d4156d1030ac438c,PennController,85,0,practice1,NULL,Scale,slider,Choice,95,1776949228646,120
1776949522,a70b234b31b29899d4156d1030ac438c,PennController,85,0,practice1,NULL,PennController,4,_Trial_,End,1776949229509,NULL
1776949522,a70b234b31b29899d4156d1030ac438c,PennController,86,0,practice2,NULL,PennController,5,_Trial_,Start,1776949229509,NULL
1776949522,a70b234b31b29899d4156d1030ac438c,PennController,86,0,practice2,NULL,PennController,5,_Header_,Start,1776949229509,NULL
1776949522,a70b234b31b29899d4156d1030ac438c,PennController,86,0,practice2,NULL,PennController,5,_Header_,End,1776949229763,NULL
1776949522,a70b234b31b29899d4156d1030ac438c,PennController,86,0,practice2,NULL,Scale,slider,Choice,5,1776949230709,140
1776949522,a70b234b31b29899d4156d1030ac438c,PennController,86,0,practice2,NULL,PennController,5,_Trial_,End,1776949231577,NULL
# 13. Number.
# 14. Name.
# 15. Target.
# 16. Group.
# 17. LexicalType.
# 18. TrialType.
# 19. Valence.
# 20. ContextCondition.
# 21. Comments.
1776949522,a70b234b31b29899d4156d1030ac438c,PennController,46,0,test,NULL,PennController,58,_Trial_,Start,1776949231578,6,EPP6,Franco is a sweetheart.,B,pej,test,pos,TO,NULL
1776949522,a70b234b31b29899d4156d1030ac438c,PennController,46,0,test,NULL,PennController,58,_Header_,Start,1776949231578,6,EPP6,Franco is a sweetheart.,B,pej,test,pos,TO,NULL
1776949522,a70b234b31b29899d4156d1030ac438c,PennController,46,0,test,NULL,PennController,58,_Header_,End,1776949231831,6,EPP6,Franco is a sweetheart.,B,pej,test,pos,TO,NULL
1776949522,a70b234b31b29899d4156d1030ac438c,PennController,46,0,test,NULL,Scale,slider,Choice,93,1776949233256,6,EPP6,Franco is a sweetheart.,B,pej,test,pos,TO,154
1776949522,a70b234b31b29899d4156d1030ac438c,PennController,46,0,test,NULL,PennController,58,_Trial_,End,1776949234385,6,EPP6,Franco is a sweetheart.,B,pej,test,pos,TO,NULL
1776949522,a70b234b31b29899d4156d1030ac438c,PennController,51,0,test,NULL,PennController,63,_Trial_,Start,1776949234386,2,EAP2,Sara is graceful.,B,adj,test,pos,NEU,NULL
1776949522,a70b234b31b29899d4156d1030ac438c,PennController,51,0,test,NULL,PennController,63,_Header_,Start,1776949234386,2,EAP2,Sara is graceful.,B,adj,test,pos,NEU,NULL
1776949522,a70b234b31b29899d4156d1030ac438c,PennController,51,0,test,NULL,PennController,63,_Header_,End,1776949234638,2,EAP2,Sara is graceful.,B,adj,test,pos,NEU,NULL
1776949522,a70b234b31b29899d4156d1030ac438c,PennController,51,0,test,NULL,Scale,slider,Choice,82,1776949235807,2,EAP2,Sara is graceful.,B,adj,test,pos,NEU,157
1776949522,a70b234b31b29899d4156d1030ac438c,PennController,51,0,test,NULL,PennController,63,_Trial_,End,1776949236778,2,EAP2,Sara is graceful.,B,adj,test,pos,NEU,NULL
1776949522,a70b234b31b29899d4156d1030ac438c,PennController,53,0,test,NULL,PennController,65,_Trial_,Start,1776949236779,3,EAP4,Francesca is careful.,B,adj,test,pos,AO,NULL
1776949522,a70b234b31b29899d4156d1030ac438c,PennController,53,0,test,NULL,PennController,65,_Header_,Start,1776949236779,3,EAP4,Francesca is careful.,B,adj,test,pos,AO,NULL
1776949522,a70b234b31b29899d4156d1030ac438c,PennController,53,0,test,NULL,PennController,65,_Header_,End,1776949237031,3,EAP4,Francesca is careful.,B,adj,test,pos,AO,NULL
1776949522,a70b234b31b29899d4156d1030ac438c,PennController,53,0,test,NULL,Scale,slider,Choice,8,1776949238226,3,EAP4,Francesca is careful.,B,adj,test,pos,AO,157
1776949522,a70b234b31b29899d4156d1030ac438c,PennController,53,0,test,NULL,PennController,65,_Trial_,End,1776949239771,3,EAP4,Francesca is careful.,B,adj,test,pos,AO,NULL
1776949522,a70b234b31b29899d4156d1030ac438c,PennController,81,0,test,NULL,PennController,93,_Trial_,Start,1776949239772,23,ENF23,Lorenzo is polite.,B,adj,filler,pos,AO,NULL
1776949522,a70b234b31b29899d4156d1030ac438c,PennController,81,0,test,NULL,PennController,93,_Header_,Start,1776949239772,23,ENF23,Lorenzo is polite.,B,adj,filler,pos,AO,NULL
1776949522,a70b234b31b29899d4156d1030ac438c,PennController,81,0,test,NULL,PennController,93,_Header_,End,1776949240027,23,ENF23,Lorenzo is polite.,B,adj,filler,pos,AO,NULL
1776949522,a70b234b31b29899d4156d1030ac438c,PennController,81,0,test,NULL,Scale,slider,Choice,12,1776949241101,23,ENF23,Lorenzo is polite.,B,adj,filler,pos,AO,184
1776949522,a70b234b31b29899d4156d1030ac438c,PennController,81,0,test,NULL,PennController,93,_Trial_,End,1776949242074,23,ENF23,Lorenzo is polite.,B,adj,filler,pos,AO,NULL
1776949522,a70b234b31b29899d4156d1030ac438c,PennController,52,0,test,NULL,PennController,64,_Trial_,Start,1776949242075,3,EAP3,Chiara is wise.,B,adj,test,pos,TO,NULL
1776949522,a70b234b31b29899d4156d1030ac438c,PennController,52,0,test,NULL,PennController,64,_Header_,Start,1776949242075,3,EAP3,Chiara is wise.,B,adj,test,pos,TO,NULL
1776949522,a70b234b31b29899d4156d1030ac438c,PennController,52,0,test,NULL,PennController,64,_Header_,End,1776949242326,3,EAP3,Chiara is wise.,B,adj,test,pos,TO,NULL
1776949522,a70b234b31b29899d4156d1030ac438c,PennController,52,0,test,NULL,Scale,slider,Choice,96,1776949243336,3,EAP3,Chiara is wise.,B,adj,test,pos,TO,155
1776949522,a70b234b31b29899d4156d1030ac438c,PennController,52,0,test,NULL,PennController,64,_Trial_,End,1776949244165,3,EAP3,Chiara is wise.,B,adj,test,pos,TO,NULL
1776949522,a70b234b31b29899d4156d1030ac438c,PennController,70,0,test,NULL,PennController,82,_Trial_,Start,1776949244166,12,ENF12,Valentina is spiteful.,B,adj,filler,neg,AO,NULL
1776949522,a70b234b31b29899d4156d1030ac438c,PennController,70,0,test,NULL,PennController,82,_Header_,Start,1776949244166,12,ENF12,Valentina is spiteful.,B,adj,filler,neg,AO,NULL
1776949522,a70b234b31b29899d4156d1030ac438c,PennController,70,0,test,NULL,PennController,82,_Header_,End,1776949244419,12,ENF12,Valentina is spiteful.,B,adj,filler,neg,AO,NULL
1776949522,a70b234b31b29899d4156d1030ac438c,PennController,70,0,test,NULL,Scale,slider,Choice,84,1776949245307,12,ENF12,Valentina is spiteful.,B,adj,filler,neg,AO,168
1776949522,a70b234b31b29899d4156d1030ac438c,PennController,70,0,test,NULL,PennController,82,_Trial_,End,1776949246388,12,ENF12,Valentina is spiteful.,B,adj,filler,neg,AO,NULL
1776949522,a70b234b31b29899d4156d1030ac438c,PennController,30,0,test,NULL,PennController,42,_Trial_,Start,1776949246390,8,EPN8,Alice is an asshole.,B,pej,test,neg,NEU,NULL
1776949522,a70b234b31b29899d4156d1030ac438c,PennController,30,0,test,NULL,PennController,42,_Header_,Start,1776949246390,8,EPN8,Alice is an asshole.,B,pej,test,neg,NEU,NULL
1776949522,a70b234b31b29899d4156d1030ac438c,PennController,30,0,test,NULL,PennController,42,_Header_,End,1776949246644,8,EPN8,Alice is an asshole.,B,pej,test,neg,NEU,NULL
1776949522,a70b234b31b29899d4156d1030ac438c,PennController,30,0,test,NULL,Scale,slider,Choice,82,1776949247860,8,EPN8,Alice is an asshole.,B,pej,test,neg,NEU,130
1776949522,a70b234b31b29899d4156d1030ac438c,PennController,30,0,test,NULL,PennController,42,_Trial_,End,1776949248904,8,EPN8,Alice is an asshole.,B,pej,test,neg,NEU,NULL
1776949522,a70b234b31b29899d4156d1030ac438c,PennController,54,0,test,NULL,PennController,66,_Trial_,Start,1776949248905,5,EAP5,Filippo is reliable.,B,adj,test,pos,NEU,NULL
1776949522,a70b234b31b29899d4156d1030ac438c,PennController,54,0,test,NULL,PennController,66,_Header_,Start,1776949248905,5,EAP5,Filippo is reliable.,B,adj,test,pos,NEU,NULL
1776949522,a70b234b31b29899d4156d1030ac438c,PennController,54,0,test,NULL,PennController,66,_Header_,End,1776949249158,5,EAP5,Filippo is reliable.,B,adj,test,pos,NEU,NULL
1776949522,a70b234b31b29899d4156d1030ac438c,PennController,54,0,test,NULL,Scale,slider,Choice,82,1776949250409,5,EAP5,Filippo is reliable.,B,adj,test,pos,NEU,133
1776949522,a70b234b31b29899d4156d1030ac438c,PennController,54,0,test,NULL,PennController,66,_Trial_,End,1776949251177,5,EAP5,Filippo is reliable.,B,adj,test,pos,NEU,NULL
1776949522,a70b234b31b29899d4156d1030ac438c,PennController,62,0,test,NULL,PennController,74,_Trial_,Start,1776949251178,4,ENF4,Giulia is arrogant.,B,adj,filler,neg,TO,NULL
1776949522,a70b234b31b29899d4156d1030ac438c,PennController,62,0,test,NULL,PennController,74,_Header_,Start,1776949251178,4,ENF4,Giulia is arrogant.,B,adj,filler,neg,TO,NULL
1776949522,a70b234b31b29899d4156d1030ac438c,PennController,62,0,test,NULL,PennController,74,_Header_,End,1776949251430,4,ENF4,Giulia is arrogant.,B,adj,filler,neg,TO,NULL
1776949522,a70b234b31b29899d4156d1030ac438c,PennController,62,0,test,NULL,Scale,slider,Choice,23,1776949252487,4,ENF4,Giulia is arrogant.,B,adj,filler,neg,TO,189
1776949522,a70b234b31b29899d4156d1030ac438c,PennController,62,0,test,NULL,PennController,74,_Trial_,End,1776949253335,4,ENF4,Giulia is arrogant.,B,adj,filler,neg,TO,NULL
1776949522,a70b234b31b29899d4156d1030ac438c,PennController,32,0,test,NULL,PennController,44,_Trial_,Start,1776949253336,1,EAN1,Sofia is a liar.,B,adj,test,neg,AO,NULL
1776949522,a70b234b31b29899d4156d1030ac438c,PennController,32,0,test,NULL,PennController,44,_Header_,Start,1776949253336,1,EAN1,Sofia is a liar.,B,adj,test,neg,AO,NULL
1776949522,a70b234b31b29899d4156d1030ac438c,PennController,32,0,test,NULL,PennController,44,_Header_,End,1776949253587,1,EAN1,Sofia is a liar.,B,adj,test,neg,AO,NULL
1776949522,a70b234b31b29899d4156d1030ac438c,PennController,32,0,test,NULL,Scale,slider,Choice,43,1776949254328,1,EAN1,Sofia is a liar.,B,adj,test,neg,AO,171
1776949522,a70b234b31b29899d4156d1030ac438c,PennController,32,0,test,NULL,PennController,44,_Trial_,End,1776949254997,1,EAN1,Sofia is a liar.,B,adj,test,neg,AO,NULL
1776949522,a70b234b31b29899d4156d1030ac438c,PennController,48,0,test,NULL,PennController,60,_Trial_,Start,1776949254997,8,EPP8,Paolo is a sweetheart.,B,pej,test,pos,NEU,NULL
1776949522,a70b234b31b29899d4156d1030ac438c,PennController,48,0,test,NULL,PennController,60,_Header_,Start,1776949254997,8,EPP8,Paolo is a sweetheart.,B,pej,test,pos,NEU,NULL
1776949522,a70b234b31b29899d4156d1030ac438c,PennController,48,0,test,NULL,PennController,60,_Header_,End,1776949255249,8,EPP8,Paolo is a sweetheart.,B,pej,test,pos,NEU,NULL
1776949522,a70b234b31b29899d4156d1030ac438c,PennController,48,0,test,NULL,Scale,slider,Choice,42,1776949256268,8,EPP8,Paolo is a sweetheart.,B,pej,test,pos,NEU,205
1776949522,a70b234b31b29899d4156d1030ac438c,PennController,48,0,test,NULL,PennController,60,_Trial_,End,1776949257229,8,EPP8,Paolo is a sweetheart.,B,pej,test,pos,NEU,NULL
1776949522,a70b234b31b29899d4156d1030ac438c,PennController,73,0,test,NULL,PennController,85,_Trial_,Start,1776949257230,15,ENF15,Federico is honest.,B,adj,filler,pos,TO,NULL
1776949522,a70b234b31b29899d4156d1030ac438c,PennController,73,0,test,NULL,PennController,85,_Header_,Start,1776949257230,15,ENF15,Federico is honest.,B,adj,filler,pos,TO,NULL
1776949522,a70b234b31b29899d4156d1030ac438c,PennController,73,0,test,NULL,PennController,85,_Header_,End,1776949257481,15,ENF15,Federico is honest.,B,adj,filler,pos,TO,NULL
1776949522,a70b234b31b29899d4156d1030ac438c,PennController,73,0,test,NULL,Scale,slider,Choice,46,1776949258221,15,ENF15,Federico is honest.,B,adj,filler,pos,TO,139
1776949522,a70b234b31b29899d4156d1030ac438c,PennController,73,0,test,NULL,PennController,85,_Trial_,End,1776949258921,15,ENF15,Federico is honest.,B,adj,filler,pos,TO,NULL
1776949522,a70b234b31b29899d4156d1030ac438c,PennController,50,0,test,NULL,PennController,62,_Trial_,Start,1776949258922,1,EAP1,Francesco is kind.,B,adj,test,pos,AO,NULL
1776949522,a70b234b31b29899d4156d1030ac438c,PennController,50,0,test,NULL,PennController,62,_Header_,Start,1776949258922,1,EAP1,Francesco is kind.,B,adj,test,pos,AO,NULL
1776949522,a70b234b31b29899d4156d1030ac438c,PennController,50,0,test,NULL,PennController,62,_Header_,End,1776949259173,1,EAP1,Francesco is kind.,B,adj,test,pos,AO,NULL
1776949522,a70b234b31b29899d4156d1030ac438c,PennController,50,0,test,NULL,Scale,slider,Choice,44,1776949260233,1,EAP1,Francesco is kind.,B,adj,test,pos,AO,120
1776949522,a70b234b31b29899d4156d1030ac438c,PennController,50,0,test,NULL,PennController,62,_Trial_,End,1776949261274,1,EAP1,Francesco is kind.,B,adj,test,pos,AO,NULL
1776949522,a70b234b31b29899d4156d1030ac438c,PennController,67,0,test,NULL,PennController,79,_Trial_,Start,1776949261275,9,ENF9,Nicola is unreliable.,B,adj,filler,neg,AO,NULL
